withinblocktrial,block,block_repetition,rt,resp,acc,cresp,conf_press,cj,rtconf,coherence,metacognition,slow_trial,manipulation,sub_id,age,gender,handedness,X,batch,check1,check2,check3,check4
0,4,1,1.5008492,['n'],1,right,['e'],0,0.3443964,0.2,0,0,FastFast,1,17,Woman,Right,NA,5,TRUE,TRUE,TRUE,TRUE
1,4,1,1.0338392,['n'],1,right,['e'],0,0.2126469,0.4,0,0,FastFast,1,17,Woman,Right,NA,5,TRUE,TRUE,TRUE,TRUE
2,4,1,0.8011867,['n'],1,right,['e'],0,0.1912183,0.4,0,0,FastFast,1,17,Woman,Right,NA,5,TRUE,TRUE,TRUE,TRUE
3,4,1,0.9176621,['n'],0,left,['e'],0,0.1963076,0.1,1,0,FastFast,1,17,Woman,Right,NA,5,TRUE,TRUE,TRUE,TRUE
4,4,1,0.9331662,['n'],0,left,['e'],0,0.2340605,0.2,1,0,FastFast,1,17,Woman,Right,NA,5,TRUE,TRUE,TRUE,TRUE
5,4,1,0.7514398,['n'],0,left,['u'],1,0.3563703,0.4,0,0,FastFast,1,17,Woman,Right,NA,5,TRUE,TRUE,TRUE,TRUE
6,4,1,1.4014196,['c'],1,left,['e'],0,0.2090229,0.4,0,0,FastFast,1,17,Woman,Right,NA,5,TRUE,TRUE,TRUE,TRUE
7,4,1,1.0012164,['c'],1,left,['u'],1,0.2593655,0.4,1,0,FastFast,1,17,Woman,Right,NA,5,TRUE,TRUE,TRUE,TRUE
8,4,1,1.3998832,['n'],1,right,['e'],0,0.180399,0.1,0,0,FastFast,1,17,Woman,Right,NA,5,TRUE,TRUE,TRUE,TRUE
9,4,1,0.8329786,['c'],1,left,['u'],1,0.5584411,0.4,1,0,FastFast,1,17,Woman,Right,NA,5,TRUE,TRUE,TRUE,TRUE
10,4,1,0.8175059,['n'],1,right,['e'],0,0.3787215,0.2,0,0,FastFast,1,17,Woman,Right,NA,5,TRUE,TRUE,TRUE,TRUE
11,4,1,1.2682174,['n'],1,right,['e'],0,0.4264682,0.2,0,0,FastFast,1,17,Woman,Right,NA,5,TRUE,TRUE,TRUE,TRUE
12,4,1,1.1847592,['c'],0,right,['e'],0,0.3489273,0.1,1,0,FastFast,1,17,Woman,Right,NA,5,TRUE,TRUE,TRUE,TRUE
13,4,1,1.2501133,['c'],0,right,['e'],0,0.1923749,0.2,1,0,FastFast,1,17,Woman,Right,NA,5,TRUE,TRUE,TRUE,TRUE
14,4,1,1.0176663,['c'],1,left,['u'],1,0.6258823,0.4,1,0,FastFast,1,17,Woman,Right,NA,5,TRUE,TRUE,TRUE,TRUE
15,4,1,1.2498387,['c'],1,left,['u'],1,0.5864175,0.4,1,0,FastFast,1,17,Woman,Right,NA,5,TRUE,TRUE,TRUE,TRUE
16,4,1,1.1512463,['n'],0,left,['e'],0,0.3269104,0.2,1,0,FastFast,1,17,Woman,Right,NA,5,TRUE,TRUE,TRUE,TRUE
17,4,1,0.883375,['n'],1,right,['u'],1,0.6663036,0.1,1,0,FastFast,1,17,Woman,Right,NA,5,TRUE,TRUE,TRUE,TRUE
18,4,1,0.6515426,['n'],1,right,['u'],1,0.1830182,0.4,1,0,FastFast,1,17,Woman,Right,NA,5,TRUE,TRUE,TRUE,TRUE
19,4,1,0.7510322,['n'],1,right,['u'],1,0.1962955,0.4,1,0,FastFast,1,17,Woman,Right,NA,5,TRUE,TRUE,TRUE,TRUE
20,4,1,0.9508998,['c'],1,left,['u'],1,0.3452087,0.2,1,0,FastFast,1,17,Woman,Right,NA,5,TRUE,TRUE,TRUE,TRUE
21,4,1,0.7347433,['c'],1,left,['u'],1,0.1441518,0.4,1,0,FastFast,1,17,Woman,Right,NA,5,TRUE,TRUE,TRUE,TRUE
22,4,1,0.8834973,['c'],0,right,['u'],1,0.1542033,0.1,0,0,FastFast,1,17,Woman,Right,NA,5,TRUE,TRUE,TRUE,TRUE
23,4,1,0.8849422,['c'],0,right,['u'],1,0.1788376,0.2,0,0,FastFast,1,17,Woman,Right,NA,5,TRUE,TRUE,TRUE,TRUE
24,4,1,1.3158947,['c'],1,left,['e'],0,0.5862429,0.2,0,0,FastFast,1,17,Woman,Right,NA,5,TRUE,TRUE,TRUE,TRUE
25,4,1,1.1162032,['c'],1,left,['e'],0,0.152545,0.2,0,0,FastFast,1,17,Woman,Right,NA,5,TRUE,TRUE,TRUE,TRUE
26,4,1,0.9510485,['c'],1,left,['e'],0,0.6553084,0.4,0,0,FastFast,1,17,Woman,Right,NA,5,TRUE,TRUE,TRUE,TRUE
27,4,1,0.73342,['n'],1,right,['e'],0,0.1854329,0.2,0,0,FastFast,1,17,Woman,Right,NA,5,TRUE,TRUE,TRUE,TRUE
28,4,1,1.118204,['c'],0,right,['e'],0,0.3759226,0.1,1,0,FastFast,1,17,Woman,Right,NA,5,TRUE,TRUE,TRUE,TRUE
29,4,1,0.7510717,['c'],1,left,['e'],0,0.1895352,0.1,0,0,FastFast,1,17,Woman,Right,NA,5,TRUE,TRUE,TRUE,TRUE
30,4,1,1.050654,['n'],1,right,['e'],0,0.1585844,0.1,0,0,FastFast,1,17,Woman,Right,NA,5,TRUE,TRUE,TRUE,TRUE
31,4,1,1.0169846,['n'],0,left,['e'],0,0.146652,0.4,1,0,FastFast,1,17,Woman,Right,NA,5,TRUE,TRUE,TRUE,TRUE
32,4,1,1.0492371,['n'],0,left,['u'],1,0.6458627,0.2,0,0,FastFast,1,17,Woman,Right,NA,5,TRUE,TRUE,TRUE,TRUE
33,4,1,0.9023571,['n'],1,right,['u'],1,0.1535109,0.2,1,0,FastFast,1,17,Woman,Right,NA,5,TRUE,TRUE,TRUE,TRUE
34,4,1,1.1340512,['n'],0,left,['e'],0,0.2646472,0.4,1,0,FastFast,1,17,Woman,Right,NA,5,TRUE,TRUE,TRUE,TRUE
35,4,1,1.2670371,['n'],0,left,['e'],0,0.2383761,0.2,1,0,FastFast,1,17,Woman,Right,NA,5,TRUE,TRUE,TRUE,TRUE
36,4,1,1.0346277,['n'],0,left,['e'],0,0.1091756,0.1,1,0,FastFast,1,17,Woman,Right,NA,5,TRUE,TRUE,TRUE,TRUE
37,4,1,0.9846226,['n'],1,right,['u'],1,0.3242731,0.1,1,0,FastFast,1,17,Woman,Right,NA,5,TRUE,TRUE,TRUE,TRUE
38,4,1,0.9179754,['n'],1,right,['u'],1,0.1494743,0.2,1,0,FastFast,1,17,Woman,Right,NA,5,TRUE,TRUE,TRUE,TRUE
39,4,1,1.0012015,['n'],0,left,['u'],1,0.2017803,0.2,0,0,FastFast,1,17,Woman,Right,NA,5,TRUE,TRUE,TRUE,TRUE
40,4,1,0.8842319,['n'],0,left,['u'],1,0.1447279,0.1,0,0,FastFast,1,17,Woman,Right,NA,5,TRUE,TRUE,TRUE,TRUE
41,4,1,0.8664465,['n'],1,right,['u'],1,0.1228692,0.2,1,0,FastFast,1,17,Woman,Right,NA,5,TRUE,TRUE,TRUE,TRUE
42,4,1,1.5499566,['c'],0,right,['e'],0,0.1543961,0.2,1,0,FastFast,1,17,Woman,Right,NA,5,TRUE,TRUE,TRUE,TRUE
43,4,1,1.2016929,['n'],1,right,['u'],1,0.3748264,0.1,1,0,FastFast,1,17,Woman,Right,NA,5,TRUE,TRUE,TRUE,TRUE
44,4,1,1.3511395,['n'],0,left,['e'],0,0.3887174,0.2,1,0,FastFast,1,17,Woman,Right,NA,5,TRUE,TRUE,TRUE,TRUE
45,4,1,0.8663,['n'],1,right,['e'],0,0.1172708,0.4,0,0,FastFast,1,17,Woman,Right,NA,5,TRUE,TRUE,TRUE,TRUE
46,4,1,1.066856,['n'],0,left,['e'],0,0.1680949,0.4,1,0,FastFast,1,17,Woman,Right,NA,5,TRUE,TRUE,TRUE,TRUE
47,4,1,0.9672894,['n'],0,left,['u'],1,0.333288,0.1,0,0,FastFast,1,17,Woman,Right,NA,5,TRUE,TRUE,TRUE,TRUE
48,4,1,1.2671498,['n'],1,right,['e'],0,0.2079206,0.1,0,0,FastFast,1,17,Woman,Right,NA,5,TRUE,TRUE,TRUE,TRUE
49,4,1,1.1677625,['c'],1,left,['e'],0,0.1397468,0.1,0,0,FastFast,1,17,Woman,Right,NA,5,TRUE,TRUE,TRUE,TRUE
50,4,1,1.3846175,['c'],0,right,['e'],0,0.1293305,0.1,1,0,FastFast,1,17,Woman,Right,NA,5,TRUE,TRUE,TRUE,TRUE
51,4,1,0.984576,['n'],1,right,['u'],1,0.1357391,0.2,1,0,FastFast,1,17,Woman,Right,NA,5,TRUE,TRUE,TRUE,TRUE
52,4,1,1.0005038,['n'],1,right,['e'],0,0.4128037,0.4,0,0,FastFast,1,17,Woman,Right,NA,5,TRUE,TRUE,TRUE,TRUE
53,4,1,1.1000749,['n'],1,right,['u'],1,0.145969,0.4,1,0,FastFast,1,17,Woman,Right,NA,5,TRUE,TRUE,TRUE,TRUE
54,4,1,0.8843922,['n'],1,right,['u'],1,0.1230033,0.1,1,0,FastFast,1,17,Woman,Right,NA,5,TRUE,TRUE,TRUE,TRUE
55,4,1,1.4993832,['c'],0,right,['e'],0,0.1733269,0.1,1,0,FastFast,1,17,Woman,Right,NA,5,TRUE,TRUE,TRUE,TRUE
56,4,1,0.9493577,['c'],1,left,['e'],0,0.1472531,0.4,0,0,FastFast,1,17,Woman,Right,NA,5,TRUE,TRUE,TRUE,TRUE
57,4,1,1.6160651,['c'],1,left,['e'],0,0.3191227,0.4,0,0,FastFast,1,17,Woman,Right,NA,5,TRUE,TRUE,TRUE,TRUE
58,4,1,1.7002488,['n'],0,left,['e'],0,0.4962753,0.1,1,0,FastFast,1,17,Woman,Right,NA,5,TRUE,TRUE,TRUE,TRUE
59,4,1,0.9500277,['n'],0,left,['e'],0,0.1212769,0.1,1,0,FastFast,1,17,Woman,Right,NA,5,TRUE,TRUE,TRUE,TRUE
0,5,1,1.4673018,['n'],1,right,['e'],0,0.6267671,0.4,0,0,AccFast,1,17,Woman,Right,NA,5,TRUE,TRUE,TRUE,TRUE
1,5,1,1.2349011,['n'],1,right,['u'],1,0.3949817,0.1,1,0,AccFast,1,17,Woman,Right,NA,5,TRUE,TRUE,TRUE,TRUE
2,5,1,3.3331388,['n'],0,left,['u'],1,0.4566008,0.4,0,0,AccFast,1,17,Woman,Right,NA,5,TRUE,TRUE,TRUE,TRUE
3,5,1,1.8164276,['n'],0,left,['u'],1,0.208515,0.1,0,0,AccFast,1,17,Woman,Right,NA,5,TRUE,TRUE,TRUE,TRUE
4,5,1,2.382699,['c'],1,left,['e'],0,0.3973401,0.4,0,0,AccFast,1,17,Woman,Right,NA,5,TRUE,TRUE,TRUE,TRUE
5,5,1,1.6828245,['n'],1,right,['e'],0,0.1880137,0.1,0,0,AccFast,1,17,Woman,Right,NA,5,TRUE,TRUE,TRUE,TRUE
6,5,1,2.9501511,['n'],1,right,['e'],0,0.897184,0.4,0,0,AccFast,1,17,Woman,Right,NA,5,TRUE,TRUE,TRUE,TRUE
7,5,1,1.8822271,['c'],0,right,['e'],0,0.7571976,0.1,1,0,AccFast,1,17,Woman,Right,NA,5,TRUE,TRUE,TRUE,TRUE
8,5,1,3.2496657,['n'],1,right,['e'],0,0.7917334,0.2,0,0,AccFast,1,17,Woman,Right,NA,5,TRUE,TRUE,TRUE,TRUE
9,5,1,2.2499428,['c'],1,left,['e'],0,0.2409457,0.4,0,0,AccFast,1,17,Woman,Right,NA,5,TRUE,TRUE,TRUE,TRUE
10,5,1,1.6511924,['c'],1,left,['u'],1,0.1350802,0.4,1,0,AccFast,1,17,Woman,Right,NA,5,TRUE,TRUE,TRUE,TRUE
11,5,1,4.7663559,['c'],1,left,['e'],0,0.5820968,0.4,0,0,AccFast,1,17,Woman,Right,NA,5,TRUE,TRUE,TRUE,TRUE
12,5,1,2.04963,['n'],1,right,['u'],1,0.2233329,0.2,1,0,AccFast,1,17,Woman,Right,NA,5,TRUE,TRUE,TRUE,TRUE
13,5,1,2.6334286,['c'],1,left,['u'],1,0.3520553,0.1,1,0,AccFast,1,17,Woman,Right,NA,5,TRUE,TRUE,TRUE,TRUE
14,5,1,1.7491864,['c'],0,right,['e'],0,0.3033005,0.2,1,0,AccFast,1,17,Woman,Right,NA,5,TRUE,TRUE,TRUE,TRUE
15,5,1,2.6009375,['c'],1,left,['e'],0,0.3494462,0.4,0,0,AccFast,1,17,Woman,Right,NA,5,TRUE,TRUE,TRUE,TRUE
16,5,1,2.2173987,['n'],1,right,['e'],0,0.1538188,0.1,0,0,AccFast,1,17,Woman,Right,NA,5,TRUE,TRUE,TRUE,TRUE
17,5,1,2.0004809,['n'],0,left,['e'],0,1.0949422,0.4,1,0,AccFast,1,17,Woman,Right,NA,5,TRUE,TRUE,TRUE,TRUE
18,5,1,2.0173871,['n'],1,right,['e'],0,0.1403362,0.1,0,0,AccFast,1,17,Woman,Right,NA,5,TRUE,TRUE,TRUE,TRUE
19,5,1,1.7007412,['c'],1,left,['u'],1,0.1823048,0.2,1,0,AccFast,1,17,Woman,Right,NA,5,TRUE,TRUE,TRUE,TRUE
20,5,1,2.8487768,['n'],1,right,['u'],1,0.2076714,0.2,1,0,AccFast,1,17,Woman,Right,NA,5,TRUE,TRUE,TRUE,TRUE
22,5,1,1.3845566,['n'],0,left,['e'],0,0.2208164,0.4,1,0,AccFast,1,17,Woman,Right,NA,5,TRUE,TRUE,TRUE,TRUE
23,5,1,1.6343236,['c'],0,right,['e'],0,0.197955,0.4,1,0,AccFast,1,17,Woman,Right,NA,5,TRUE,TRUE,TRUE,TRUE
24,5,1,1.7835951,['n'],1,right,['e'],0,0.2964788,0.1,0,0,AccFast,1,17,Woman,Right,NA,5,TRUE,TRUE,TRUE,TRUE
25,5,1,1.6015224,['n'],1,right,['e'],0,0.1908331,0.1,0,0,AccFast,1,17,Woman,Right,NA,5,TRUE,TRUE,TRUE,TRUE
26,5,1,1.2685465,['c'],1,left,['u'],1,0.3759986,0.4,1,0,AccFast,1,17,Woman,Right,NA,5,TRUE,TRUE,TRUE,TRUE
27,5,1,1.7351888,['n'],1,right,['e'],0,0.4063107,0.4,0,0,AccFast,1,17,Woman,Right,NA,5,TRUE,TRUE,TRUE,TRUE
28,5,1,1.4663931,['c'],0,right,['e'],0,0.1896395,0.1,1,0,AccFast,1,17,Woman,Right,NA,5,TRUE,TRUE,TRUE,TRUE
29,5,1,1.8677896,['c'],1,left,['e'],0,0.2062484,0.2,0,0,AccFast,1,17,Woman,Right,NA,5,TRUE,TRUE,TRUE,TRUE
30,5,1,1.5843367,['n'],1,right,['e'],0,0.2173742,0.4,0,0,AccFast,1,17,Woman,Right,NA,5,TRUE,TRUE,TRUE,TRUE
31,5,1,1.866988,['n'],0,left,['e'],0,0.2330138,0.2,1,0,AccFast,1,17,Woman,Right,NA,5,TRUE,TRUE,TRUE,TRUE
32,5,1,1.6012817,['n'],0,left,['e'],0,0.1780615,0.1,1,0,AccFast,1,17,Woman,Right,NA,5,TRUE,TRUE,TRUE,TRUE
33,5,1,1.801219,['c'],1,left,['e'],0,0.3578847,0.4,0,0,AccFast,1,17,Woman,Right,NA,5,TRUE,TRUE,TRUE,TRUE
34,5,1,1.1002503,['n'],1,right,['u'],1,0.2060108,0.2,1,0,AccFast,1,17,Woman,Right,NA,5,TRUE,TRUE,TRUE,TRUE
35,5,1,1.3344753,['n'],1,right,['u'],1,0.2274502,0.2,1,0,AccFast,1,17,Woman,Right,NA,5,TRUE,TRUE,TRUE,TRUE
36,5,1,1.5159193,['n'],0,left,['u'],1,0.1610515,0.1,0,0,AccFast,1,17,Woman,Right,NA,5,TRUE,TRUE,TRUE,TRUE
37,5,1,1.0842108,['n'],0,left,['e'],0,0.0977358,0.1,1,0,AccFast,1,17,Woman,Right,NA,5,TRUE,TRUE,TRUE,TRUE
38,5,1,1.2681322,['n'],1,right,['e'],0,0.189116,0.2,0,0,AccFast,1,17,Woman,Right,NA,5,TRUE,TRUE,TRUE,TRUE
39,5,1,1.4169624,['n'],1,right,['u'],1,0.159636,0.2,1,0,AccFast,1,17,Woman,Right,NA,5,TRUE,TRUE,TRUE,TRUE
40,5,1,1.8831803,['c'],1,left,['e'],0,0.2416378,0.2,0,0,AccFast,1,17,Woman,Right,NA,5,TRUE,TRUE,TRUE,TRUE
41,5,1,1.2493072,['n'],1,right,['e'],0,0.1375291,0.2,0,0,AccFast,1,17,Woman,Right,NA,5,TRUE,TRUE,TRUE,TRUE
42,5,1,1.5157567,['c'],1,left,['e'],0,0.1851588,0.2,0,0,AccFast,1,17,Woman,Right,NA,5,TRUE,TRUE,TRUE,TRUE
43,5,1,1.8014548,['c'],1,left,['e'],0,0.1719198,0.1,0,0,AccFast,1,17,Woman,Right,NA,5,TRUE,TRUE,TRUE,TRUE
44,5,1,1.4338474,['n'],1,right,['e'],0,0.2061673,0.4,0,0,AccFast,1,17,Woman,Right,NA,5,TRUE,TRUE,TRUE,TRUE
45,5,1,1.0492011,['n'],1,right,['u'],1,0.1594329,0.1,1,0,AccFast,1,17,Woman,Right,NA,5,TRUE,TRUE,TRUE,TRUE
46,5,1,1.3000758,['c'],1,left,['e'],0,0.1675124,0.1,0,0,AccFast,1,17,Woman,Right,NA,5,TRUE,TRUE,TRUE,TRUE
47,5,1,1.2659455,['c'],1,left,['e'],0,0.1615642,0.2,0,0,AccFast,1,17,Woman,Right,NA,5,TRUE,TRUE,TRUE,TRUE
48,5,1,1.1499961,['c'],1,left,['e'],0,0.1586703,0.1,0,0,AccFast,1,17,Woman,Right,NA,5,TRUE,TRUE,TRUE,TRUE
49,5,1,1.9692624,['n'],1,right,['e'],0,0.1570087,0.2,0,0,AccFast,1,17,Woman,Right,NA,5,TRUE,TRUE,TRUE,TRUE
50,5,1,2.3177643,['c'],0,right,['e'],0,0.1725873,0.2,1,0,AccFast,1,17,Woman,Right,NA,5,TRUE,TRUE,TRUE,TRUE
51,5,1,1.3996186,['n'],1,right,['e'],0,0.1289406,0.4,0,0,AccFast,1,17,Woman,Right,NA,5,TRUE,TRUE,TRUE,TRUE
52,5,1,1.3013168,['n'],1,right,['e'],0,0.1535602,0.4,0,0,AccFast,1,17,Woman,Right,NA,5,TRUE,TRUE,TRUE,TRUE
53,5,1,1.3998636,['c'],1,left,['u'],1,0.1427075,0.4,1,0,AccFast,1,17,Woman,Right,NA,5,TRUE,TRUE,TRUE,TRUE
54,5,1,1.4504987,['c'],0,right,['e'],0,0.2569511,0.2,1,0,AccFast,1,17,Woman,Right,NA,5,TRUE,TRUE,TRUE,TRUE
55,5,1,1.9170409,['n'],1,right,['e'],0,0.2048726,0.4,0,0,AccFast,1,17,Woman,Right,NA,5,TRUE,TRUE,TRUE,TRUE
56,5,1,2.0508635,['c'],1,left,['e'],0,0.1654024,0.2,0,0,AccFast,1,17,Woman,Right,NA,5,TRUE,TRUE,TRUE,TRUE
57,5,1,2.5337957,['c'],1,left,['e'],0,0.5885239,0.1,0,0,AccFast,1,17,Woman,Right,NA,5,TRUE,TRUE,TRUE,TRUE
58,5,1,1.5835038,['c'],1,left,['e'],0,0.1839864,0.2,0,0,AccFast,1,17,Woman,Right,NA,5,TRUE,TRUE,TRUE,TRUE
59,5,1,1.2340902,['n'],0,left,['u'],1,0.2745704,0.1,0,0,AccFast,1,17,Woman,Right,NA,5,TRUE,TRUE,TRUE,TRUE
0,6,1,2.3330425,['c'],1,left,['u'],1,2.292675,0.1,1,0,AccAcc,1,17,Woman,Right,NA,5,TRUE,TRUE,TRUE,TRUE
1,6,1,2.716205,['n'],1,right,['e'],0,0.4630116,0.1,0,0,AccAcc,1,17,Woman,Right,NA,5,TRUE,TRUE,TRUE,TRUE
2,6,1,1.767473,['n'],0,left,['e'],0,1.4161722,0.1,1,0,AccAcc,1,17,Woman,Right,NA,5,TRUE,TRUE,TRUE,TRUE
3,6,1,2.0837483,['n'],0,left,['e'],0,0.4790415,0.1,1,0,AccAcc,1,17,Woman,Right,NA,5,TRUE,TRUE,TRUE,TRUE
4,6,1,2.0492262,['n'],0,left,['e'],0,0.3335658,0.2,1,0,AccAcc,1,17,Woman,Right,NA,5,TRUE,TRUE,TRUE,TRUE
5,6,1,1.5522903,['c'],1,left,['u'],1,0.195298,0.4,1,0,AccAcc,1,17,Woman,Right,NA,5,TRUE,TRUE,TRUE,TRUE
6,6,1,2.6008422,['n'],1,right,['u'],1,1.5427732,0.4,1,0,AccAcc,1,17,Woman,Right,NA,5,TRUE,TRUE,TRUE,TRUE
7,6,1,2.1178683,['n'],0,left,['u'],1,0.4391017,0.2,0,0,AccAcc,1,17,Woman,Right,NA,5,TRUE,TRUE,TRUE,TRUE
8,6,1,1.7669311,['n'],0,left,['e'],0,0.4493366,0.1,1,0,AccAcc,1,17,Woman,Right,NA,5,TRUE,TRUE,TRUE,TRUE
9,6,1,0.8838958,['c'],1,left,['u'],1,0.1583071,0.4,1,0,AccAcc,1,17,Woman,Right,NA,5,TRUE,TRUE,TRUE,TRUE
10,6,1,2.6164904,['n'],1,right,['e'],0,0.5954683,0.1,0,0,AccAcc,1,17,Woman,Right,NA,5,TRUE,TRUE,TRUE,TRUE
11,6,1,1.1848365,['n'],0,left,['e'],0,0.1903053,0.1,1,0,AccAcc,1,17,Woman,Right,NA,5,TRUE,TRUE,TRUE,TRUE
12,6,1,1.33426,['n'],1,right,['e'],0,0.3399754,0.1,0,0,AccAcc,1,17,Woman,Right,NA,5,TRUE,TRUE,TRUE,TRUE
13,6,1,1.8014027,['n'],1,right,['e'],0,0.1771125,0.1,0,0,AccAcc,1,17,Woman,Right,NA,5,TRUE,TRUE,TRUE,TRUE
14,6,1,1.4844095,['n'],1,right,['e'],0,0.1938306,0.2,0,0,AccAcc,1,17,Woman,Right,NA,5,TRUE,TRUE,TRUE,TRUE
15,6,1,1.1509316,['n'],1,right,['e'],0,0.2069383,0.2,0,0,AccAcc,1,17,Woman,Right,NA,5,TRUE,TRUE,TRUE,TRUE
16,6,1,1.5843723,['n'],1,right,['e'],0,0.2023748,0.2,0,0,AccAcc,1,17,Woman,Right,NA,5,TRUE,TRUE,TRUE,TRUE
17,6,1,1.3168086,['c'],1,left,['e'],0,0.2077639,0.1,0,0,AccAcc,1,17,Woman,Right,NA,5,TRUE,TRUE,TRUE,TRUE
18,6,1,1.5517745,['c'],1,left,['u'],1,0.3011351,0.4,1,0,AccAcc,1,17,Woman,Right,NA,5,TRUE,TRUE,TRUE,TRUE
19,6,1,1.3677528,['n'],1,right,['e'],0,0.3160497,0.2,0,0,AccAcc,1,17,Woman,Right,NA,5,TRUE,TRUE,TRUE,TRUE
20,6,1,1.5003734,['c'],1,left,['e'],0,0.6782032,0.4,0,0,AccAcc,1,17,Woman,Right,NA,5,TRUE,TRUE,TRUE,TRUE
21,6,1,1.5834857,['n'],0,left,['u'],1,0.4305351,0.4,0,0,AccAcc,1,17,Woman,Right,NA,5,TRUE,TRUE,TRUE,TRUE
22,6,1,1.551606,['n'],1,right,['e'],0,0.2097019,0.1,0,0,AccAcc,1,17,Woman,Right,NA,5,TRUE,TRUE,TRUE,TRUE
23,6,1,1.4844505,['n'],0,left,['e'],0,0.304867,0.1,1,0,AccAcc,1,17,Woman,Right,NA,5,TRUE,TRUE,TRUE,TRUE
24,6,1,1.4827249,['c'],1,left,['e'],0,0.2528508,0.4,0,0,AccAcc,1,17,Woman,Right,NA,5,TRUE,TRUE,TRUE,TRUE
25,6,1,2.7171828,['c'],1,left,['e'],0,0.4240345,0.1,0,0,AccAcc,1,17,Woman,Right,NA,5,TRUE,TRUE,TRUE,TRUE
26,6,1,1.151493,['n'],0,left,['u'],1,0.2357781,0.2,0,0,AccAcc,1,17,Woman,Right,NA,5,TRUE,TRUE,TRUE,TRUE
27,6,1,1.3340437,['c'],1,left,['u'],1,0.2557163,0.4,1,0,AccAcc,1,17,Woman,Right,NA,5,TRUE,TRUE,TRUE,TRUE
28,6,1,1.3516267,['n'],0,left,['e'],0,0.2900763,0.4,1,0,AccAcc,1,17,Woman,Right,NA,5,TRUE,TRUE,TRUE,TRUE
29,6,1,1.7494778,['c'],1,left,['e'],0,0.8048139,0.4,0,0,AccAcc,1,17,Woman,Right,NA,5,TRUE,TRUE,TRUE,TRUE
30,6,1,1.8001074,['n'],1,right,['e'],0,0.3983176,0.2,0,0,AccAcc,1,17,Woman,Right,NA,5,TRUE,TRUE,TRUE,TRUE
31,6,1,1.4332444,['n'],0,left,['e'],0,0.568008,0.2,1,0,AccAcc,1,17,Woman,Right,NA,5,TRUE,TRUE,TRUE,TRUE
32,6,1,1.3998963,['n'],1,right,['e'],0,0.2034142,0.4,0,0,AccAcc,1,17,Woman,Right,NA,5,TRUE,TRUE,TRUE,TRUE
33,6,1,1.2510572,['n'],1,right,['e'],0,0.2755029,0.2,0,0,AccAcc,1,17,Woman,Right,NA,5,TRUE,TRUE,TRUE,TRUE
34,6,1,1.4162709,['n'],1,right,['e'],0,0.1951827,0.2,0,0,AccAcc,1,17,Woman,Right,NA,5,TRUE,TRUE,TRUE,TRUE
35,6,1,1.3501941,['n'],1,right,['e'],0,0.2004943,0.2,0,0,AccAcc,1,17,Woman,Right,NA,5,TRUE,TRUE,TRUE,TRUE
36,6,1,1.550659,['c'],0,right,['e'],0,0.2124225,0.1,1,0,AccAcc,1,17,Woman,Right,NA,5,TRUE,TRUE,TRUE,TRUE
37,6,1,1.4177434,['c'],1,left,['u'],1,0.1821227,0.2,1,0,AccAcc,1,17,Woman,Right,NA,5,TRUE,TRUE,TRUE,TRUE
38,6,1,1.651135,['c'],0,right,['e'],0,0.4625286,0.2,1,0,AccAcc,1,17,Woman,Right,NA,5,TRUE,TRUE,TRUE,TRUE
39,6,1,1.1011513,['n'],1,right,['u'],1,0.242383,0.2,1,0,AccAcc,1,17,Woman,Right,NA,5,TRUE,TRUE,TRUE,TRUE
40,6,1,2.1177011,['c'],1,left,['e'],0,0.4069688,0.1,0,0,AccAcc,1,17,Woman,Right,NA,5,TRUE,TRUE,TRUE,TRUE
41,6,1,1.2498796,['n'],1,right,['u'],1,0.3441299,0.4,1,0,AccAcc,1,17,Woman,Right,NA,5,TRUE,TRUE,TRUE,TRUE
42,6,1,1.2344295,['n'],1,right,['u'],1,0.2032017,0.4,1,0,AccAcc,1,17,Woman,Right,NA,5,TRUE,TRUE,TRUE,TRUE
43,6,1,1.9176935,['n'],1,right,['e'],0,0.2491316,0.2,0,0,AccAcc,1,17,Woman,Right,NA,5,TRUE,TRUE,TRUE,TRUE
44,6,1,1.4164448,['n'],1,right,['e'],0,0.2176817,0.1,0,0,AccAcc,1,17,Woman,Right,NA,5,TRUE,TRUE,TRUE,TRUE
45,6,1,1.384454,['n'],0,left,['u'],1,0.2361653,0.2,0,0,AccAcc,1,17,Woman,Right,NA,5,TRUE,TRUE,TRUE,TRUE
46,6,1,1.3844715,['n'],0,left,['e'],0,0.2691285,0.2,1,0,AccAcc,1,17,Woman,Right,NA,5,TRUE,TRUE,TRUE,TRUE
47,6,1,1.4825939,['n'],0,left,['e'],0,0.618517,0.1,1,0,AccAcc,1,17,Woman,Right,NA,5,TRUE,TRUE,TRUE,TRUE
48,6,1,2.1158591,['c'],1,left,['e'],0,0.3355218,0.2,0,0,AccAcc,1,17,Woman,Right,NA,5,TRUE,TRUE,TRUE,TRUE
49,6,1,1.2328685,['n'],1,right,['e'],0,0.1956367,0.2,0,0,AccAcc,1,17,Woman,Right,NA,5,TRUE,TRUE,TRUE,TRUE
50,6,1,1.1317759,['c'],1,left,['e'],0,0.2571272,0.1,0,0,AccAcc,1,17,Woman,Right,NA,5,TRUE,TRUE,TRUE,TRUE
51,6,1,1.3516624,['n'],1,right,['e'],0,0.7224555,0.4,0,0,AccAcc,1,17,Woman,Right,NA,5,TRUE,TRUE,TRUE,TRUE
52,6,1,1.7005733,['c'],0,right,['u'],1,0.2450047,0.4,0,0,AccAcc,1,17,Woman,Right,NA,5,TRUE,TRUE,TRUE,TRUE
53,6,1,2.1013872,['c'],0,right,['e'],0,0.2015262,0.4,1,0,AccAcc,1,17,Woman,Right,NA,5,TRUE,TRUE,TRUE,TRUE
54,6,1,1.6681167,['n'],0,left,['e'],0,0.257389,0.4,1,0,AccAcc,1,17,Woman,Right,NA,5,TRUE,TRUE,TRUE,TRUE
55,6,1,1.3176635,['n'],1,right,['e'],0,0.3571768,0.4,0,0,AccAcc,1,17,Woman,Right,NA,5,TRUE,TRUE,TRUE,TRUE
56,6,1,1.4176479,['n'],1,right,['u'],1,0.2249954,0.4,1,0,AccAcc,1,17,Woman,Right,NA,5,TRUE,TRUE,TRUE,TRUE
57,6,1,1.1984456,['n'],1,right,['e'],0,1.3882671,0.4,0,0,AccAcc,1,17,Woman,Right,NA,5,TRUE,TRUE,TRUE,TRUE
58,6,1,1.2832199,['n'],0,left,['e'],0,0.2275457,0.1,1,0,AccAcc,1,17,Woman,Right,NA,5,TRUE,TRUE,TRUE,TRUE
59,6,1,1.5500496,['n'],1,right,['e'],0,0.1745487,0.1,0,0,AccAcc,1,17,Woman,Right,NA,5,TRUE,TRUE,TRUE,TRUE
0,7,1,0.4998711,['n'],0,left,['u'],1,1.3903548,0.2,0,0,FastAcc,1,17,Woman,Right,NA,5,TRUE,TRUE,TRUE,TRUE
1,7,1,1.1344663,['n'],1,right,['e'],0,0.7475636,0.4,0,0,FastAcc,1,17,Woman,Right,NA,5,TRUE,TRUE,TRUE,TRUE
2,7,1,1.2347729,['n'],1,right,['u'],1,2.4948703,0.4,1,0,FastAcc,1,17,Woman,Right,NA,5,TRUE,TRUE,TRUE,TRUE
3,7,1,0.7841118,['c'],1,left,['u'],1,0.6223625,0.4,1,0,FastAcc,1,17,Woman,Right,NA,5,TRUE,TRUE,TRUE,TRUE
4,7,1,0.867624,['n'],0,left,['e'],0,0.5334928,0.4,1,0,FastAcc,1,17,Woman,Right,NA,5,TRUE,TRUE,TRUE,TRUE
5,7,1,1.90066,['n'],0,left,['e'],0,0.406718,0.1,1,0,FastAcc,1,17,Woman,Right,NA,5,TRUE,TRUE,TRUE,TRUE
6,7,1,1.4665613,['c'],1,left,['e'],0,0.383327,0.2,0,0,FastAcc,1,17,Woman,Right,NA,5,TRUE,TRUE,TRUE,TRUE
7,7,1,0.900152,['n'],1,right,['u'],1,0.4304094,0.4,1,0,FastAcc,1,17,Woman,Right,NA,5,TRUE,TRUE,TRUE,TRUE
8,7,1,1.0992972,['c'],1,left,['e'],0,1.0595713,0.1,0,0,FastAcc,1,17,Woman,Right,NA,5,TRUE,TRUE,TRUE,TRUE
9,7,1,1.1510118,['n'],0,left,['e'],0,0.3172738,0.1,1,0,FastAcc,1,17,Woman,Right,NA,5,TRUE,TRUE,TRUE,TRUE
10,7,1,1.0839957,['n'],1,right,['e'],0,0.3597293,0.2,0,0,FastAcc,1,17,Woman,Right,NA,5,TRUE,TRUE,TRUE,TRUE
11,7,1,0.5672752,['n'],0,left,['u'],1,0.5496125,0.2,0,0,FastAcc,1,17,Woman,Right,NA,5,TRUE,TRUE,TRUE,TRUE
12,7,1,0.9002594,['c'],0,right,['e'],0,0.2858549,0.2,1,0,FastAcc,1,17,Woman,Right,NA,5,TRUE,TRUE,TRUE,TRUE
13,7,1,1.0011483,['n'],1,right,['e'],0,0.2369296,0.4,0,0,FastAcc,1,17,Woman,Right,NA,5,TRUE,TRUE,TRUE,TRUE
14,7,1,0.9342175,['c'],0,right,['e'],0,0.2887363,0.1,1,0,FastAcc,1,17,Woman,Right,NA,5,TRUE,TRUE,TRUE,TRUE
15,7,1,0.9501051,['n'],1,right,['e'],0,0.2737442,0.1,0,0,FastAcc,1,17,Woman,Right,NA,5,TRUE,TRUE,TRUE,TRUE
16,7,1,1.0011457,['n'],1,right,['e'],0,0.3216328,0.1,0,0,FastAcc,1,17,Woman,Right,NA,5,TRUE,TRUE,TRUE,TRUE
17,7,1,0.8342867,['n'],1,right,['e'],0,1.0938666,0.2,0,0,FastAcc,1,17,Woman,Right,NA,5,TRUE,TRUE,TRUE,TRUE
18,7,1,0.8173397,['c'],0,right,['u'],1,2.0767371,0.2,0,0,FastAcc,1,17,Woman,Right,NA,5,TRUE,TRUE,TRUE,TRUE
19,7,1,1.2847825,['c'],0,right,['e'],0,0.8412502,0.2,1,0,FastAcc,1,17,Woman,Right,NA,5,TRUE,TRUE,TRUE,TRUE
20,7,1,0.8840897,['c'],1,left,['u'],1,0.2153488,0.4,1,0,FastAcc,1,17,Woman,Right,NA,5,TRUE,TRUE,TRUE,TRUE
21,7,1,1.1342842,['c'],1,left,['u'],1,0.7075833,0.4,1,0,FastAcc,1,17,Woman,Right,NA,5,TRUE,TRUE,TRUE,TRUE
22,7,1,1.1677515,['n'],1,right,['u'],1,1.659319,0.2,1,0,FastAcc,1,17,Woman,Right,NA,5,TRUE,TRUE,TRUE,TRUE
23,7,1,1.685052,['c'],0,right,['e'],0,0.5525685,0.1,1,0,FastAcc,1,17,Woman,Right,NA,5,TRUE,TRUE,TRUE,TRUE
24,7,1,1.0821481,['n'],0,left,['e'],0,0.3788129,0.4,1,0,FastAcc,1,17,Woman,Right,NA,5,TRUE,TRUE,TRUE,TRUE
25,7,1,0.6663816,['n'],1,right,['u'],1,0.4028558,0.2,1,0,FastAcc,1,17,Woman,Right,NA,5,TRUE,TRUE,TRUE,TRUE
26,7,1,1.1170158,['c'],0,right,['e'],0,0.2486894,0.1,1,0,FastAcc,1,17,Woman,Right,NA,5,TRUE,TRUE,TRUE,TRUE
27,7,1,1.2331862,['n'],1,right,['e'],0,0.4001021,0.4,0,0,FastAcc,1,17,Woman,Right,NA,5,TRUE,TRUE,TRUE,TRUE
28,7,1,1.2504317,['n'],0,left,['e'],0,0.7202864,0.4,1,0,FastAcc,1,17,Woman,Right,NA,5,TRUE,TRUE,TRUE,TRUE
29,7,1,1.1159157,['n'],1,right,['u'],1,1.1309314,0.1,1,0,FastAcc,1,17,Woman,Right,NA,5,TRUE,TRUE,TRUE,TRUE
30,7,1,1.5012694,['c'],1,left,['u'],1,1.2671,0.1,1,0,FastAcc,1,17,Woman,Right,NA,5,TRUE,TRUE,TRUE,TRUE
31,7,1,1.2181622,['n'],0,left,['u'],1,1.7944757,0.2,0,0,FastAcc,1,17,Woman,Right,NA,5,TRUE,TRUE,TRUE,TRUE
32,7,1,1.1338052,['n'],0,left,['u'],1,2.1130037,0.2,0,0,FastAcc,1,17,Woman,Right,NA,5,TRUE,TRUE,TRUE,TRUE
33,7,1,1.0178274,['c'],0,right,['e'],0,1.2056008,0.4,1,0,FastAcc,1,17,Woman,Right,NA,5,TRUE,TRUE,TRUE,TRUE
34,7,1,0.5680826,['n'],0,left,['e'],0,0.5935911,0.1,1,0,FastAcc,1,17,Woman,Right,NA,5,TRUE,TRUE,TRUE,TRUE
35,7,1,0.7340224,['c'],1,left,['e'],0,1.487117,0.1,0,0,FastAcc,1,17,Woman,Right,NA,5,TRUE,TRUE,TRUE,TRUE
36,7,1,0.8678886,['n'],1,right,['u'],1,2.0372095,0.2,1,0,FastAcc,1,17,Woman,Right,NA,5,TRUE,TRUE,TRUE,TRUE
37,7,1,1.1683516,['n'],0,left,['e'],0,0.5985947,0.2,1,0,FastAcc,1,17,Woman,Right,NA,5,TRUE,TRUE,TRUE,TRUE
38,7,1,0.6819845,['n'],0,left,['e'],0,0.6783583,0.1,1,0,FastAcc,1,17,Woman,Right,NA,5,TRUE,TRUE,TRUE,TRUE
39,7,1,0.8501134,['c'],1,left,['e'],0,1.052267,0.4,0,0,FastAcc,1,17,Woman,Right,NA,5,TRUE,TRUE,TRUE,TRUE
40,7,1,1.6011358,['n'],0,left,['e'],0,1.5728353,0.1,1,0,FastAcc,1,17,Woman,Right,NA,5,TRUE,TRUE,TRUE,TRUE
41,7,1,1.0018224,['c'],0,right,['e'],0,1.3598074,0.2,1,0,FastAcc,1,17,Woman,Right,NA,5,TRUE,TRUE,TRUE,TRUE
42,7,1,0.7165082,['n'],1,right,['e'],0,0.4331882,0.1,0,0,FastAcc,1,17,Woman,Right,NA,5,TRUE,TRUE,TRUE,TRUE
43,7,1,0.5167649,['n'],0,left,['e'],0,0.4446216,0.2,1,0,FastAcc,1,17,Woman,Right,NA,5,TRUE,TRUE,TRUE,TRUE
44,7,1,0.6162408,['n'],0,left,['e'],0,0.4056789,0.4,1,0,FastAcc,1,17,Woman,Right,NA,5,TRUE,TRUE,TRUE,TRUE
45,7,1,0.602183,['n'],1,right,['e'],0,0.4308947,0.4,0,0,FastAcc,1,17,Woman,Right,NA,5,TRUE,TRUE,TRUE,TRUE
46,7,1,0.8172119,['n'],0,left,['e'],0,0.608039,0.1,1,0,FastAcc,1,17,Woman,Right,NA,5,TRUE,TRUE,TRUE,TRUE
47,7,1,0.8173885,['n'],0,left,['e'],0,1.1769773,0.2,1,0,FastAcc,1,17,Woman,Right,NA,5,TRUE,TRUE,TRUE,TRUE
48,7,1,1.2500718,['c'],0,right,['e'],0,0.3150157,0.2,1,0,FastAcc,1,17,Woman,Right,NA,5,TRUE,TRUE,TRUE,TRUE
49,7,1,0.9174965,['c'],1,left,['u'],1,0.2519497,0.4,1,0,FastAcc,1,17,Woman,Right,NA,5,TRUE,TRUE,TRUE,TRUE
50,7,1,0.8346224,['n'],1,right,['u'],1,1.1551538,0.4,1,0,FastAcc,1,17,Woman,Right,NA,5,TRUE,TRUE,TRUE,TRUE
51,7,1,0.9506042,['n'],0,left,['e'],0,1.3935587,0.4,1,0,FastAcc,1,17,Woman,Right,NA,5,TRUE,TRUE,TRUE,TRUE
52,7,1,1.1012999,['n'],1,right,['e'],0,0.3382621,0.1,0,0,FastAcc,1,17,Woman,Right,NA,5,TRUE,TRUE,TRUE,TRUE
53,7,1,0.7513955,['c'],1,left,['e'],0,1.1599071,0.1,0,0,FastAcc,1,17,Woman,Right,NA,5,TRUE,TRUE,TRUE,TRUE
54,7,1,1.1516221,['c'],0,right,['e'],0,0.7186468,0.2,1,0,FastAcc,1,17,Woman,Right,NA,5,TRUE,TRUE,TRUE,TRUE
55,7,1,0.7845622,['n'],1,right,['e'],0,2.1170702,0.4,0,0,FastAcc,1,17,Woman,Right,NA,5,TRUE,TRUE,TRUE,TRUE
56,7,1,0.699326,['n'],0,left,['e'],0,0.3284567,0.4,1,0,FastAcc,1,17,Woman,Right,NA,5,TRUE,TRUE,TRUE,TRUE
57,7,1,1.7347977,['n'],0,left,['e'],0,0.7274546,0.1,1,0,FastAcc,1,17,Woman,Right,NA,5,TRUE,TRUE,TRUE,TRUE
58,7,1,0.8166162,['n'],1,right,['u'],1,0.3493981,0.1,1,0,FastAcc,1,17,Woman,Right,NA,5,TRUE,TRUE,TRUE,TRUE
59,7,1,1.084523,['n'],1,right,['e'],0,0.2945454,0.2,0,0,FastAcc,1,17,Woman,Right,NA,5,TRUE,TRUE,TRUE,TRUE
0,8,1,0.4511419,['n'],0,left,['e'],0,0.6282732,0.2,1,0,FastFast,1,17,Woman,Right,NA,5,TRUE,TRUE,TRUE,TRUE
1,8,1,0.4166139,['n'],1,right,['u'],1,0.7175945,0.1,1,0,FastFast,1,17,Woman,Right,NA,5,TRUE,TRUE,TRUE,TRUE
2,8,1,0.7669026,['c'],0,right,['e'],0,0.9159366,0.1,1,0,FastFast,1,17,Woman,Right,NA,5,TRUE,TRUE,TRUE,TRUE
3,8,1,0.5341145,['n'],1,right,['u'],1,0.3489099,0.4,1,0,FastFast,1,17,Woman,Right,NA,5,TRUE,TRUE,TRUE,TRUE
4,8,1,1.0844949,['n'],1,right,['e'],0,0.5981303,0.2,0,0,FastFast,1,17,Woman,Right,NA,5,TRUE,TRUE,TRUE,TRUE
5,8,1,0.6348871,['n'],1,right,['e'],0,0.9822289,0.4,0,0,FastFast,1,17,Woman,Right,NA,5,TRUE,TRUE,TRUE,TRUE
6,8,1,0.7841447,['n'],0,left,['e'],0,0.1788486,0.1,1,0,FastFast,1,17,Woman,Right,NA,5,TRUE,TRUE,TRUE,TRUE
7,8,1,0.7850468,['c'],0,right,['e'],0,0.1905208,0.2,1,0,FastFast,1,17,Woman,Right,NA,5,TRUE,TRUE,TRUE,TRUE
8,8,1,0.867619,['c'],0,right,['e'],0,0.2308248,0.2,1,0,FastFast,1,17,Woman,Right,NA,5,TRUE,TRUE,TRUE,TRUE
9,8,1,0.7008322,['c'],1,left,['u'],1,0.356088,0.4,1,0,FastFast,1,17,Woman,Right,NA,5,TRUE,TRUE,TRUE,TRUE
10,8,1,0.9012701,['c'],1,left,['e'],0,0.2124443,0.1,0,0,FastFast,1,17,Woman,Right,NA,5,TRUE,TRUE,TRUE,TRUE
11,8,1,0.7670614,['c'],1,left,['e'],0,0.2073608,0.2,0,0,FastFast,1,17,Woman,Right,NA,5,TRUE,TRUE,TRUE,TRUE
12,8,1,0.8343412,['n'],1,right,['u'],1,0.2803877,0.4,1,0,FastFast,1,17,Woman,Right,NA,5,TRUE,TRUE,TRUE,TRUE
13,8,1,0.6816378,['n'],1,right,['u'],1,0.261617,0.4,1,0,FastFast,1,17,Woman,Right,NA,5,TRUE,TRUE,TRUE,TRUE
14,8,1,0.8509777,['n'],1,right,['e'],0,0.1880259,0.1,0,0,FastFast,1,17,Woman,Right,NA,5,TRUE,TRUE,TRUE,TRUE
15,8,1,0.7334393,['n'],1,right,['e'],0,0.2963075,0.4,0,0,FastFast,1,17,Woman,Right,NA,5,TRUE,TRUE,TRUE,TRUE
16,8,1,0.8844181,['n'],0,left,['u'],1,0.684027,0.1,0,0,FastFast,1,17,Woman,Right,NA,5,TRUE,TRUE,TRUE,TRUE
17,8,1,0.9160956,['c'],1,left,['u'],1,0.6068309,0.4,1,0,FastFast,1,17,Woman,Right,NA,5,TRUE,TRUE,TRUE,TRUE
18,8,1,1.1178519,['c'],1,left,['e'],0,0.2355799,0.4,0,0,FastFast,1,17,Woman,Right,NA,5,TRUE,TRUE,TRUE,TRUE
19,8,1,0.9006123,['n'],1,right,['u'],1,0.1928629,0.2,1,0,FastFast,1,17,Woman,Right,NA,5,TRUE,TRUE,TRUE,TRUE
20,8,1,0.7166071,['n'],1,right,['u'],1,0.1765567,0.4,1,0,FastFast,1,17,Woman,Right,NA,5,TRUE,TRUE,TRUE,TRUE
21,8,1,0.6842587,['n'],1,right,['u'],1,0.143459,0.4,1,0,FastFast,1,17,Woman,Right,NA,5,TRUE,TRUE,TRUE,TRUE
22,8,1,1.6332878,['n'],0,left,['u'],1,0.3159956,0.2,0,0,FastFast,1,17,Woman,Right,NA,5,TRUE,TRUE,TRUE,TRUE
23,8,1,0.7513177,['n'],1,right,['u'],1,0.17999,0.4,1,0,FastFast,1,17,Woman,Right,NA,5,TRUE,TRUE,TRUE,TRUE
24,8,1,1.2667927,['c'],0,right,['e'],0,0.1712711,0.2,1,0,FastFast,1,17,Woman,Right,NA,5,TRUE,TRUE,TRUE,TRUE
25,8,1,0.8512946,['n'],1,right,['e'],0,0.2133235,0.4,0,0,FastFast,1,17,Woman,Right,NA,5,TRUE,TRUE,TRUE,TRUE
26,8,1,0.8179083,['n'],0,left,['e'],0,0.1755855,0.1,1,0,FastFast,1,17,Woman,Right,NA,5,TRUE,TRUE,TRUE,TRUE
27,8,1,0.967872,['c'],1,left,['e'],0,0.275327,0.2,0,0,FastFast,1,17,Woman,Right,NA,5,TRUE,TRUE,TRUE,TRUE
28,8,1,0.8165768,['n'],0,left,['e'],0,0.171146,0.1,1,0,FastFast,1,17,Woman,Right,NA,5,TRUE,TRUE,TRUE,TRUE
29,8,1,0.649709,['n'],0,left,['e'],0,0.2210729,0.1,1,0,FastFast,1,17,Woman,Right,NA,5,TRUE,TRUE,TRUE,TRUE
30,8,1,1.1996859,['n'],1,right,['e'],0,0.534655,0.2,0,0,FastFast,1,17,Woman,Right,NA,5,TRUE,TRUE,TRUE,TRUE
31,8,1,0.9166714,['n'],0,left,['e'],0,0.1426413,0.4,1,0,FastFast,1,17,Woman,Right,NA,5,TRUE,TRUE,TRUE,TRUE
32,8,1,0.9514624,['n'],1,right,['e'],0,0.1652324,0.2,0,0,FastFast,1,17,Woman,Right,NA,5,TRUE,TRUE,TRUE,TRUE
33,8,1,1.0993791,['n'],1,right,['e'],0,0.1816833,0.2,0,0,FastFast,1,17,Woman,Right,NA,5,TRUE,TRUE,TRUE,TRUE
34,8,1,1.0004437,['c'],1,left,['e'],0,0.7280944,0.2,0,0,FastFast,1,17,Woman,Right,NA,5,TRUE,TRUE,TRUE,TRUE
35,8,1,0.9839796,['n'],1,right,['e'],0,0.5502291,0.4,0,0,FastFast,1,17,Woman,Right,NA,5,TRUE,TRUE,TRUE,TRUE
36,8,1,0.6176856,['n'],0,left,['e'],0,0.2336222,0.1,1,0,FastFast,1,17,Woman,Right,NA,5,TRUE,TRUE,TRUE,TRUE
37,8,1,0.8172981,['n'],0,left,['e'],0,0.2262967,0.2,1,0,FastFast,1,17,Woman,Right,NA,5,TRUE,TRUE,TRUE,TRUE
38,8,1,1.0181727,['c'],0,right,['e'],0,0.2272359,0.2,1,0,FastFast,1,17,Woman,Right,NA,5,TRUE,TRUE,TRUE,TRUE
39,8,1,1.0843127,['c'],1,left,['u'],1,0.2575925,0.1,1,0,FastFast,1,17,Woman,Right,NA,5,TRUE,TRUE,TRUE,TRUE
40,8,1,1.4503802,['n'],0,left,['u'],1,0.8480781,0.1,0,0,FastFast,1,17,Woman,Right,NA,5,TRUE,TRUE,TRUE,TRUE
41,8,1,0.8338721,['n'],0,left,['e'],0,0.1592623,0.1,1,0,FastFast,1,17,Woman,Right,NA,5,TRUE,TRUE,TRUE,TRUE
42,8,1,0.8843982,['c'],1,left,['u'],1,0.280466,0.1,1,0,FastFast,1,17,Woman,Right,NA,5,TRUE,TRUE,TRUE,TRUE
43,8,1,0.8845895,['c'],1,left,['e'],0,0.3324352,0.4,0,0,FastFast,1,17,Woman,Right,NA,5,TRUE,TRUE,TRUE,TRUE
44,8,1,1.233068,['n'],1,right,['e'],0,0.6238661,0.4,0,0,FastFast,1,17,Woman,Right,NA,5,TRUE,TRUE,TRUE,TRUE
45,8,1,1.0015786,['n'],1,right,['e'],0,0.1616513,0.1,0,0,FastFast,1,17,Woman,Right,NA,5,TRUE,TRUE,TRUE,TRUE
46,8,1,0.901021,['n'],0,left,['e'],0,0.2182218,0.4,1,0,FastFast,1,17,Woman,Right,NA,5,TRUE,TRUE,TRUE,TRUE
47,8,1,0.5005773,['n'],1,right,['e'],0,0.2072889,0.4,0,0,FastFast,1,17,Woman,Right,NA,5,TRUE,TRUE,TRUE,TRUE
48,8,1,0.884919,['n'],0,left,['e'],0,0.6460945,0.4,1,0,FastFast,1,17,Woman,Right,NA,5,TRUE,TRUE,TRUE,TRUE
49,8,1,0.9159378,['c'],0,right,['e'],0,0.4105371,0.1,1,0,FastFast,1,17,Woman,Right,NA,5,TRUE,TRUE,TRUE,TRUE
50,8,1,1.0495523,['c'],0,right,['e'],0,0.8030256,0.2,1,0,FastFast,1,17,Woman,Right,NA,5,TRUE,TRUE,TRUE,TRUE
51,8,1,0.8663322,['c'],1,left,['u'],1,0.1781208,0.4,1,0,FastFast,1,17,Woman,Right,NA,5,TRUE,TRUE,TRUE,TRUE
52,8,1,0.9010234,['c'],0,right,['u'],1,0.169628,0.2,0,0,FastFast,1,17,Woman,Right,NA,5,TRUE,TRUE,TRUE,TRUE
53,8,1,1.3657357,['c'],0,right,['u'],1,0.3512826,0.2,0,0,FastFast,1,17,Woman,Right,NA,5,TRUE,TRUE,TRUE,TRUE
54,8,1,1.6510444,['n'],0,left,['e'],0,0.2894564,0.1,1,0,FastFast,1,17,Woman,Right,NA,5,TRUE,TRUE,TRUE,TRUE
55,8,1,0.9665246,['c'],0,right,['u'],1,0.1620862,0.2,0,0,FastFast,1,17,Woman,Right,NA,5,TRUE,TRUE,TRUE,TRUE
56,8,1,1.1838036,['c'],1,left,['e'],0,0.2384037,0.1,0,0,FastFast,1,17,Woman,Right,NA,5,TRUE,TRUE,TRUE,TRUE
57,8,1,1.0010703,['c'],1,left,['e'],0,0.399508,0.1,0,0,FastFast,1,17,Woman,Right,NA,5,TRUE,TRUE,TRUE,TRUE
58,8,1,1.0011391,['c'],1,left,['e'],0,0.2179052,0.1,0,0,FastFast,1,17,Woman,Right,NA,5,TRUE,TRUE,TRUE,TRUE
59,8,1,1.1513841,['c'],1,left,['e'],0,0.1977578,0.2,0,0,FastFast,1,17,Woman,Right,NA,5,TRUE,TRUE,TRUE,TRUE
0,9,1,1.4664506,['n'],0,left,['e'],0,0.5113617,0.2,1,0,AccFast,1,17,Woman,Right,NA,5,TRUE,TRUE,TRUE,TRUE
1,9,1,1.1011807,['n'],1,right,['e'],0,0.3057694,0.4,0,0,AccFast,1,17,Woman,Right,NA,5,TRUE,TRUE,TRUE,TRUE
2,9,1,1.884511,['n'],1,right,['e'],0,0.269035,0.1,0,0,AccFast,1,17,Woman,Right,NA,5,TRUE,TRUE,TRUE,TRUE
3,9,1,0.9504911,['n'],1,right,['u'],1,1.1186308,0.4,1,0,AccFast,1,17,Woman,Right,NA,5,TRUE,TRUE,TRUE,TRUE
4,9,1,1.3677011,['c'],1,left,['e'],0,0.2221951,0.4,0,0,AccFast,1,17,Woman,Right,NA,5,TRUE,TRUE,TRUE,TRUE
5,9,1,1.4510103,['c'],0,right,['e'],0,0.2537201,0.1,1,0,AccFast,1,17,Woman,Right,NA,5,TRUE,TRUE,TRUE,TRUE
6,9,1,1.167884,['n'],1,right,['e'],0,0.183548,0.4,0,0,AccFast,1,17,Woman,Right,NA,5,TRUE,TRUE,TRUE,TRUE
7,9,1,1.3004263,['n'],0,left,['e'],0,0.68667,0.2,1,0,AccFast,1,17,Woman,Right,NA,5,TRUE,TRUE,TRUE,TRUE
8,9,1,2.016752,['c'],0,right,['e'],0,0.373828,0.1,1,0,AccFast,1,17,Woman,Right,NA,5,TRUE,TRUE,TRUE,TRUE
9,9,1,1.2498521,['n'],0,left,['e'],0,0.1845833,0.2,1,0,AccFast,1,17,Woman,Right,NA,5,TRUE,TRUE,TRUE,TRUE
10,9,1,1.0678986,['n'],1,right,['e'],0,0.1835483,0.4,0,0,AccFast,1,17,Woman,Right,NA,5,TRUE,TRUE,TRUE,TRUE
11,9,1,1.7328545,['n'],0,left,['e'],0,0.2374964,0.2,1,0,AccFast,1,17,Woman,Right,NA,5,TRUE,TRUE,TRUE,TRUE
12,9,1,1.1343151,['c'],1,left,['e'],0,0.1852204,0.1,0,0,AccFast,1,17,Woman,Right,NA,5,TRUE,TRUE,TRUE,TRUE
13,9,1,1.3680554,['c'],1,left,['u'],1,0.2056606,0.4,1,0,AccFast,1,17,Woman,Right,NA,5,TRUE,TRUE,TRUE,TRUE
14,9,1,1.283823,['c'],1,left,['e'],0,0.2126492,0.1,0,0,AccFast,1,17,Woman,Right,NA,5,TRUE,TRUE,TRUE,TRUE
15,9,1,1.5680447,['n'],1,right,['e'],0,1.1373128,0.1,0,0,AccFast,1,17,Woman,Right,NA,5,TRUE,TRUE,TRUE,TRUE
16,9,1,1.9505815,['n'],0,left,['e'],0,0.4873191,0.4,1,0,AccFast,1,17,Woman,Right,NA,5,TRUE,TRUE,TRUE,TRUE
17,9,1,1.5511386,['n'],0,left,['e'],0,0.361022,0.4,1,0,AccFast,1,17,Woman,Right,NA,5,TRUE,TRUE,TRUE,TRUE
18,9,1,1.1497379,['n'],1,right,['e'],0,0.2243239,0.4,0,0,AccFast,1,17,Woman,Right,NA,5,TRUE,TRUE,TRUE,TRUE
19,9,1,1.500061,['c'],1,left,['u'],1,0.460701,0.2,1,0,AccFast,1,17,Woman,Right,NA,5,TRUE,TRUE,TRUE,TRUE
20,9,1,2.0520733,['c'],1,left,['e'],0,0.411463,0.4,0,0,AccFast,1,17,Woman,Right,NA,5,TRUE,TRUE,TRUE,TRUE
21,9,1,1.6675661,['n'],1,right,['e'],0,0.2030863,0.1,0,0,AccFast,1,17,Woman,Right,NA,5,TRUE,TRUE,TRUE,TRUE
22,9,1,1.5014361,['n'],1,right,['e'],0,0.2013445,0.2,0,0,AccFast,1,17,Woman,Right,NA,5,TRUE,TRUE,TRUE,TRUE
23,9,1,1.5676968,['c'],0,right,['e'],0,0.2131424,0.1,1,0,AccFast,1,17,Woman,Right,NA,5,TRUE,TRUE,TRUE,TRUE
24,9,1,1.3501786,['n'],1,right,['e'],0,0.1687669,0.1,0,0,AccFast,1,17,Woman,Right,NA,5,TRUE,TRUE,TRUE,TRUE
25,9,1,1.2329479,['c'],1,left,['e'],0,1.427889,0.2,0,0,AccFast,1,17,Woman,Right,NA,5,TRUE,TRUE,TRUE,TRUE
26,9,1,1.5846818,['n'],1,right,['e'],0,0.1898568,0.2,0,0,AccFast,1,17,Woman,Right,NA,5,TRUE,TRUE,TRUE,TRUE
27,9,1,1.1832267,['c'],0,right,['e'],0,0.1383692,0.2,1,0,AccFast,1,17,Woman,Right,NA,5,TRUE,TRUE,TRUE,TRUE
28,9,1,1.1336554,['n'],1,right,['e'],0,0.2176728,0.1,0,0,AccFast,1,17,Woman,Right,NA,5,TRUE,TRUE,TRUE,TRUE
29,9,1,1.7677073,['n'],0,left,['e'],0,0.1725121,0.1,1,0,AccFast,1,17,Woman,Right,NA,5,TRUE,TRUE,TRUE,TRUE
30,9,1,1.2173718,['c'],1,left,['u'],1,0.216642,0.4,1,0,AccFast,1,17,Woman,Right,NA,5,TRUE,TRUE,TRUE,TRUE
31,9,1,1.2841477,['n'],0,left,['e'],0,0.1910103,0.1,1,0,AccFast,1,17,Woman,Right,NA,5,TRUE,TRUE,TRUE,TRUE
32,9,1,1.1511232,['n'],1,right,['e'],0,0.2199876,0.1,0,0,AccFast,1,17,Woman,Right,NA,5,TRUE,TRUE,TRUE,TRUE
33,9,1,1.2675029,['n'],1,right,['e'],0,0.2902472,0.2,0,0,AccFast,1,17,Woman,Right,NA,5,TRUE,TRUE,TRUE,TRUE
34,9,1,1.1500788,['n'],0,left,['e'],0,0.2202661,0.1,1,0,AccFast,1,17,Woman,Right,NA,5,TRUE,TRUE,TRUE,TRUE
35,9,1,1.3010489,['n'],0,left,['e'],0,0.2571771,0.1,1,0,AccFast,1,17,Woman,Right,NA,5,TRUE,TRUE,TRUE,TRUE
36,9,1,1.5992066,['n'],1,right,['e'],0,0.1551339,0.2,0,0,AccFast,1,17,Woman,Right,NA,5,TRUE,TRUE,TRUE,TRUE
37,9,1,1.1497773,['n'],1,right,['e'],0,0.233076,0.1,0,0,AccFast,1,17,Woman,Right,NA,5,TRUE,TRUE,TRUE,TRUE
38,9,1,1.0828427,['c'],1,left,['e'],0,0.1828752,0.1,0,0,AccFast,1,17,Woman,Right,NA,5,TRUE,TRUE,TRUE,TRUE
39,9,1,1.3173877,['c'],1,left,['e'],0,0.2367827,0.2,0,0,AccFast,1,17,Woman,Right,NA,5,TRUE,TRUE,TRUE,TRUE
40,9,1,1.1673321,['n'],0,left,['e'],0,0.1990169,0.4,1,0,AccFast,1,17,Woman,Right,NA,5,TRUE,TRUE,TRUE,TRUE
41,9,1,1.1009063,['n'],0,left,['e'],0,0.2140169,0.4,1,0,AccFast,1,17,Woman,Right,NA,5,TRUE,TRUE,TRUE,TRUE
42,9,1,0.8680023,['n'],1,right,['e'],0,0.1731894,0.4,0,0,AccFast,1,17,Woman,Right,NA,5,TRUE,TRUE,TRUE,TRUE
43,9,1,1.3334657,['c'],1,left,['e'],0,0.1629203,0.2,0,0,AccFast,1,17,Woman,Right,NA,5,TRUE,TRUE,TRUE,TRUE
44,9,1,1.1170392,['n'],0,left,['e'],0,0.1631593,0.2,1,0,AccFast,1,17,Woman,Right,NA,5,TRUE,TRUE,TRUE,TRUE
45,9,1,1.0995264,['n'],1,right,['u'],1,0.2746347,0.2,1,0,AccFast,1,17,Woman,Right,NA,5,TRUE,TRUE,TRUE,TRUE
46,9,1,1.6493369,['c'],1,left,['e'],0,0.297003,0.2,0,0,AccFast,1,17,Woman,Right,NA,5,TRUE,TRUE,TRUE,TRUE
47,9,1,1.1506426,['n'],1,right,['e'],0,0.1919259,0.2,0,0,AccFast,1,17,Woman,Right,NA,5,TRUE,TRUE,TRUE,TRUE
48,9,1,1.3176299,['c'],1,left,['e'],0,0.1506012,0.2,0,0,AccFast,1,17,Woman,Right,NA,5,TRUE,TRUE,TRUE,TRUE
49,9,1,1.2333162,['n'],1,right,['e'],0,0.2269954,0.2,0,0,AccFast,1,17,Woman,Right,NA,5,TRUE,TRUE,TRUE,TRUE
50,9,1,1.1176533,['c'],1,left,['e'],0,0.2068602,0.4,0,0,AccFast,1,17,Woman,Right,NA,5,TRUE,TRUE,TRUE,TRUE
51,9,1,1.2180585,['n'],0,left,['e'],0,0.1683695,0.1,1,0,AccFast,1,17,Woman,Right,NA,5,TRUE,TRUE,TRUE,TRUE
52,9,1,1.1678762,['n'],0,left,['e'],0,0.1816815,0.4,1,0,AccFast,1,17,Woman,Right,NA,5,TRUE,TRUE,TRUE,TRUE
53,9,1,1.1506416,['n'],1,right,['e'],0,0.1629382,0.4,0,0,AccFast,1,17,Woman,Right,NA,5,TRUE,TRUE,TRUE,TRUE
54,9,1,1.0502591,['n'],1,right,['e'],0,0.1494369,0.4,0,0,AccFast,1,17,Woman,Right,NA,5,TRUE,TRUE,TRUE,TRUE
55,9,1,1.1834748,['n'],1,right,['e'],0,0.2099504,0.2,0,0,AccFast,1,17,Woman,Right,NA,5,TRUE,TRUE,TRUE,TRUE
56,9,1,1.2018762,['n'],1,right,['e'],0,0.2838979,0.1,0,0,AccFast,1,17,Woman,Right,NA,5,TRUE,TRUE,TRUE,TRUE
57,9,1,1.1854278,['n'],1,right,['e'],0,0.3237341,0.4,0,0,AccFast,1,17,Woman,Right,NA,5,TRUE,TRUE,TRUE,TRUE
58,9,1,1.017003,['n'],1,right,['e'],0,0.1450968,0.4,0,0,AccFast,1,17,Woman,Right,NA,5,TRUE,TRUE,TRUE,TRUE
59,9,1,1.3353566,['n'],0,left,['e'],0,0.1850154,0.1,1,0,AccFast,1,17,Woman,Right,NA,5,TRUE,TRUE,TRUE,TRUE
0,10,1,1.0339369,['n'],0,left,['e'],0,0.4106222,0.4,1,0,AccAcc,1,17,Woman,Right,NA,5,TRUE,TRUE,TRUE,TRUE
1,10,1,1.1658096,['n'],1,right,['u'],1,0.2555979,0.1,1,0,AccAcc,1,17,Woman,Right,NA,5,TRUE,TRUE,TRUE,TRUE
2,10,1,1.5495819,['c'],1,left,['u'],1,1.4656096,0.2,1,0,AccAcc,1,17,Woman,Right,NA,5,TRUE,TRUE,TRUE,TRUE
3,10,1,2.1174261,['n'],0,left,['e'],0,0.316522,0.4,1,0,AccAcc,1,17,Woman,Right,NA,5,TRUE,TRUE,TRUE,TRUE
4,10,1,1.5160325,['c'],1,left,['e'],0,0.1974721,0.2,0,0,AccAcc,1,17,Woman,Right,NA,5,TRUE,TRUE,TRUE,TRUE
5,10,1,1.3174578,['n'],0,left,['e'],0,0.1389943,0.1,1,0,AccAcc,1,17,Woman,Right,NA,5,TRUE,TRUE,TRUE,TRUE
6,10,1,1.1166349,['n'],1,right,['u'],1,0.2196106,0.4,1,0,AccAcc,1,17,Woman,Right,NA,5,TRUE,TRUE,TRUE,TRUE
7,10,1,1.3172538,['c'],1,left,['e'],0,0.2245287,0.4,0,0,AccAcc,1,17,Woman,Right,NA,5,TRUE,TRUE,TRUE,TRUE
8,10,1,1.3190378,['n'],1,right,['e'],0,0.2298522,0.4,0,0,AccAcc,1,17,Woman,Right,NA,5,TRUE,TRUE,TRUE,TRUE
9,10,1,1.3517611,['n'],1,right,['u'],1,0.4103859,0.4,1,0,AccAcc,1,17,Woman,Right,NA,5,TRUE,TRUE,TRUE,TRUE
10,10,1,1.3358758,['n'],0,left,['e'],0,2.2620587,0.4,1,0,AccAcc,1,17,Woman,Right,NA,5,TRUE,TRUE,TRUE,TRUE
11,10,1,1.8651166,['n'],1,right,['e'],0,0.6930863,0.1,0,0,AccAcc,1,17,Woman,Right,NA,5,TRUE,TRUE,TRUE,TRUE
12,10,1,1.3337558,['c'],0,right,['u'],1,0.1656908,0.2,0,0,AccAcc,1,17,Woman,Right,NA,5,TRUE,TRUE,TRUE,TRUE
13,10,1,1.4183583,['c'],1,left,['e'],0,0.2485405,0.4,0,0,AccAcc,1,17,Woman,Right,NA,5,TRUE,TRUE,TRUE,TRUE
14,10,1,1.1847974,['n'],0,left,['e'],0,0.2896842,0.1,1,0,AccAcc,1,17,Woman,Right,NA,5,TRUE,TRUE,TRUE,TRUE
15,10,1,2.4164357,['n'],1,right,['e'],0,0.2168206,0.2,0,0,AccAcc,1,17,Woman,Right,NA,5,TRUE,TRUE,TRUE,TRUE
16,10,1,1.4841325,['n'],0,left,['e'],0,0.3429334,0.2,1,0,AccAcc,1,17,Woman,Right,NA,5,TRUE,TRUE,TRUE,TRUE
17,10,1,1.1849875,['c'],1,left,['e'],0,0.2045857,0.2,0,0,AccAcc,1,17,Woman,Right,NA,5,TRUE,TRUE,TRUE,TRUE
18,10,1,1.1499266,['c'],0,right,['e'],0,0.2817678,0.1,1,0,AccAcc,1,17,Woman,Right,NA,5,TRUE,TRUE,TRUE,TRUE
19,10,1,1.1178522,['n'],0,left,['e'],0,0.2115828,0.4,1,0,AccAcc,1,17,Woman,Right,NA,5,TRUE,TRUE,TRUE,TRUE
20,10,1,1.132168,['n'],1,right,['u'],1,0.7531011,0.1,1,0,AccAcc,1,17,Woman,Right,NA,5,TRUE,TRUE,TRUE,TRUE
21,10,1,1.2994605,['n'],1,right,['u'],1,0.2245892,0.1,1,0,AccAcc,1,17,Woman,Right,NA,5,TRUE,TRUE,TRUE,TRUE
22,10,1,1.8504364,['n'],0,left,['e'],0,0.304242,0.2,1,0,AccAcc,1,17,Woman,Right,NA,5,TRUE,TRUE,TRUE,TRUE
23,10,1,1.2008919,['c'],0,right,['e'],0,0.1988057,0.4,1,0,AccAcc,1,17,Woman,Right,NA,5,TRUE,TRUE,TRUE,TRUE
24,10,1,1.1670932,['c'],0,right,['e'],0,0.2273239,0.1,1,0,AccAcc,1,17,Woman,Right,NA,5,TRUE,TRUE,TRUE,TRUE
25,10,1,1.1849832,['c'],1,left,['e'],0,0.2849273,0.2,0,0,AccAcc,1,17,Woman,Right,NA,5,TRUE,TRUE,TRUE,TRUE
26,10,1,1.2337609,['n'],1,right,['e'],0,0.2275892,0.2,0,0,AccAcc,1,17,Woman,Right,NA,5,TRUE,TRUE,TRUE,TRUE
27,10,1,1.2167094,['n'],0,left,['e'],0,0.2527806,0.1,1,0,AccAcc,1,17,Woman,Right,NA,5,TRUE,TRUE,TRUE,TRUE
28,10,1,1.101231,['c'],0,right,['u'],1,0.2644951,0.4,0,0,AccAcc,1,17,Woman,Right,NA,5,TRUE,TRUE,TRUE,TRUE
29,10,1,1.7184438,['c'],0,right,['u'],1,0.2513826,0.2,0,0,AccAcc,1,17,Woman,Right,NA,5,TRUE,TRUE,TRUE,TRUE
30,10,1,1.3171019,['c'],0,right,['u'],1,0.2875085,0.4,0,0,AccAcc,1,17,Woman,Right,NA,5,TRUE,TRUE,TRUE,TRUE
31,10,1,2.4844966,['n'],0,left,['e'],0,0.8513171,0.4,1,0,AccAcc,1,17,Woman,Right,NA,5,TRUE,TRUE,TRUE,TRUE
32,10,1,1.5510081,['n'],1,right,['e'],0,0.2458254,0.1,0,0,AccAcc,1,17,Woman,Right,NA,5,TRUE,TRUE,TRUE,TRUE
33,10,1,1.183778,['n'],1,right,['u'],1,0.2390465,0.4,1,0,AccAcc,1,17,Woman,Right,NA,5,TRUE,TRUE,TRUE,TRUE
34,10,1,1.8502934,['c'],1,left,['e'],0,0.223028,0.2,0,0,AccAcc,1,17,Woman,Right,NA,5,TRUE,TRUE,TRUE,TRUE
35,10,1,1.0346769,['c'],1,left,['u'],1,0.2708695,0.4,1,0,AccAcc,1,17,Woman,Right,NA,5,TRUE,TRUE,TRUE,TRUE
36,10,1,1.1682733,['n'],0,left,['e'],0,0.1996933,0.2,1,0,AccAcc,1,17,Woman,Right,NA,5,TRUE,TRUE,TRUE,TRUE
37,10,1,1.4340184,['n'],0,left,['e'],0,0.2650824,0.2,1,0,AccAcc,1,17,Woman,Right,NA,5,TRUE,TRUE,TRUE,TRUE
38,10,1,1.33353,['c'],0,right,['e'],0,0.2518766,0.1,1,0,AccAcc,1,17,Woman,Right,NA,5,TRUE,TRUE,TRUE,TRUE
39,10,1,1.6676657,['n'],0,left,['e'],0,0.1620016,0.1,1,0,AccAcc,1,17,Woman,Right,NA,5,TRUE,TRUE,TRUE,TRUE
40,10,1,1.1332615,['n'],1,right,['e'],0,0.1924513,0.4,0,0,AccAcc,1,17,Woman,Right,NA,5,TRUE,TRUE,TRUE,TRUE
41,10,1,1.1338475,['c'],0,right,['e'],0,0.2060296,0.2,1,0,AccAcc,1,17,Woman,Right,NA,5,TRUE,TRUE,TRUE,TRUE
42,10,1,1.1999923,['c'],1,left,['e'],0,0.2328881,0.1,0,0,AccAcc,1,17,Woman,Right,NA,5,TRUE,TRUE,TRUE,TRUE
43,10,1,1.2669464,['n'],0,left,['u'],1,0.3030024,0.2,0,0,AccAcc,1,17,Woman,Right,NA,5,TRUE,TRUE,TRUE,TRUE
44,10,1,1.0841803,['n'],0,left,['e'],0,0.187405,0.2,1,0,AccAcc,1,17,Woman,Right,NA,5,TRUE,TRUE,TRUE,TRUE
45,10,1,1.0011867,['n'],1,right,['e'],0,0.2851376,0.4,0,0,AccAcc,1,17,Woman,Right,NA,5,TRUE,TRUE,TRUE,TRUE
46,10,1,1.3686719,['c'],1,left,['e'],0,0.5574945,0.2,0,0,AccAcc,1,17,Woman,Right,NA,5,TRUE,TRUE,TRUE,TRUE
47,10,1,0.934782,['n'],1,right,['e'],0,0.260773,0.2,0,0,AccAcc,1,17,Woman,Right,NA,5,TRUE,TRUE,TRUE,TRUE
48,10,1,1.4515293,['n'],1,right,['e'],0,0.5152225,0.1,0,0,AccAcc,1,17,Woman,Right,NA,5,TRUE,TRUE,TRUE,TRUE
49,10,1,1.3506981,['c'],1,left,['e'],0,0.2030747,0.1,0,0,AccAcc,1,17,Woman,Right,NA,5,TRUE,TRUE,TRUE,TRUE
50,10,1,1.0677128,['n'],0,left,['e'],0,0.2188305,0.4,1,0,AccAcc,1,17,Woman,Right,NA,5,TRUE,TRUE,TRUE,TRUE
51,10,1,0.9511686,['n'],1,right,['e'],0,0.2065863,0.2,0,0,AccAcc,1,17,Woman,Right,NA,5,TRUE,TRUE,TRUE,TRUE
52,10,1,0.9676661,['n'],1,right,['e'],0,0.2102802,0.1,0,0,AccAcc,1,17,Woman,Right,NA,5,TRUE,TRUE,TRUE,TRUE
53,10,1,1.2828508,['n'],1,right,['e'],0,0.2182552,0.2,0,0,AccAcc,1,17,Woman,Right,NA,5,TRUE,TRUE,TRUE,TRUE
54,10,1,1.5174858,['n'],0,left,['e'],0,0.2153195,0.1,1,0,AccAcc,1,17,Woman,Right,NA,5,TRUE,TRUE,TRUE,TRUE
55,10,1,1.1502839,['n'],1,right,['e'],0,0.2433027,0.4,0,0,AccAcc,1,17,Woman,Right,NA,5,TRUE,TRUE,TRUE,TRUE
56,10,1,1.2839231,['n'],1,right,['e'],0,0.2162558,0.1,0,0,AccAcc,1,17,Woman,Right,NA,5,TRUE,TRUE,TRUE,TRUE
57,10,1,1.1340747,['c'],1,left,['u'],1,0.181377,0.4,1,0,AccAcc,1,17,Woman,Right,NA,5,TRUE,TRUE,TRUE,TRUE
58,10,1,1.1494353,['n'],1,right,['e'],0,0.2109962,0.1,0,0,AccAcc,1,17,Woman,Right,NA,5,TRUE,TRUE,TRUE,TRUE
59,10,1,0.967646,['c'],1,left,['u'],1,0.1981155,0.1,1,0,AccAcc,1,17,Woman,Right,NA,5,TRUE,TRUE,TRUE,TRUE
0,11,1,1.600578,['c'],0,right,['e'],0,1.9277835,0.2,1,0,FastAcc,1,17,Woman,Right,NA,5,TRUE,TRUE,TRUE,TRUE
1,11,1,0.4499721,['n'],1,right,['u'],1,0.7154919,0.4,1,0,FastAcc,1,17,Woman,Right,NA,5,TRUE,TRUE,TRUE,TRUE
2,11,1,0.6498859,['c'],0,right,['e'],0,0.8550114,0.1,1,0,FastAcc,1,17,Woman,Right,NA,5,TRUE,TRUE,TRUE,TRUE
3,11,1,0.5494627,['n'],0,left,['u'],1,0.9943983,0.4,0,0,FastAcc,1,17,Woman,Right,NA,5,TRUE,TRUE,TRUE,TRUE
4,11,1,0.5497191,['n'],0,left,['e'],0,0.5350544,0.1,1,0,FastAcc,1,17,Woman,Right,NA,5,TRUE,TRUE,TRUE,TRUE
5,11,1,0.6671919,['n'],0,left,['e'],0,0.5689334,0.4,1,0,FastAcc,1,17,Woman,Right,NA,5,TRUE,TRUE,TRUE,TRUE
6,11,1,0.651117,['n'],1,right,['e'],0,0.5555695,0.2,0,0,FastAcc,1,17,Woman,Right,NA,5,TRUE,TRUE,TRUE,TRUE
7,11,1,0.6664888,['n'],1,right,['e'],0,0.5565309,0.1,0,0,FastAcc,1,17,Woman,Right,NA,5,TRUE,TRUE,TRUE,TRUE
8,11,1,0.6160492,['n'],1,right,['e'],0,0.449373,0.1,0,0,FastAcc,1,17,Woman,Right,NA,5,TRUE,TRUE,TRUE,TRUE
9,11,1,0.6673382,['c'],1,left,['u'],1,0.7901804,0.4,1,0,FastAcc,1,17,Woman,Right,NA,5,TRUE,TRUE,TRUE,TRUE
10,11,1,1.033526,['n'],1,right,['e'],0,0.783813,0.2,0,0,FastAcc,1,17,Woman,Right,NA,5,TRUE,TRUE,TRUE,TRUE
11,11,1,0.6515522,['n'],0,left,['e'],0,0.2810247,0.4,1,0,FastAcc,1,17,Woman,Right,NA,5,TRUE,TRUE,TRUE,TRUE
12,11,1,1.2855314,['n'],0,left,['e'],0,0.2206786,0.1,1,0,FastAcc,1,17,Woman,Right,NA,5,TRUE,TRUE,TRUE,TRUE
13,11,1,0.8329706,['n'],1,right,['u'],1,0.7105071,0.4,1,0,FastAcc,1,17,Woman,Right,NA,5,TRUE,TRUE,TRUE,TRUE
14,11,1,0.6518713,['n'],0,left,['e'],0,1.1856744,0.4,1,0,FastAcc,1,17,Woman,Right,NA,5,TRUE,TRUE,TRUE,TRUE
15,11,1,0.6002791,['n'],1,right,['e'],0,0.2529701,0.4,0,0,FastAcc,1,17,Woman,Right,NA,5,TRUE,TRUE,TRUE,TRUE
16,11,1,0.7831476,['n'],0,left,['e'],0,0.262633,0.2,1,0,FastAcc,1,17,Woman,Right,NA,5,TRUE,TRUE,TRUE,TRUE
17,11,1,0.9333412,['c'],0,right,['e'],0,0.3611045,0.2,1,0,FastAcc,1,17,Woman,Right,NA,5,TRUE,TRUE,TRUE,TRUE
18,11,1,1.2343468,['n'],0,left,['e'],0,0.2201373,0.2,1,0,FastAcc,1,17,Woman,Right,NA,5,TRUE,TRUE,TRUE,TRUE
19,11,1,1.0846146,['c'],1,left,['e'],0,0.2177961,0.1,0,0,FastAcc,1,17,Woman,Right,NA,5,TRUE,TRUE,TRUE,TRUE
20,11,1,0.8169989,['n'],1,right,['u'],1,0.6269635,0.4,1,0,FastAcc,1,17,Woman,Right,NA,5,TRUE,TRUE,TRUE,TRUE
21,11,1,0.8501549,['n'],1,right,['e'],0,0.507268,0.2,0,0,FastAcc,1,17,Woman,Right,NA,5,TRUE,TRUE,TRUE,TRUE
22,11,1,0.666484,['n'],0,left,['e'],0,0.6869435,0.4,1,0,FastAcc,1,17,Woman,Right,NA,5,TRUE,TRUE,TRUE,TRUE
23,11,1,0.6342925,['c'],1,left,['e'],0,0.6359475,0.2,0,0,FastAcc,1,17,Woman,Right,NA,5,TRUE,TRUE,TRUE,TRUE
24,11,1,1.4337347,['n'],1,right,['e'],0,0.4760938,0.1,0,0,FastAcc,1,17,Woman,Right,NA,5,TRUE,TRUE,TRUE,TRUE
25,11,1,1.4512553,['c'],0,right,['e'],0,0.3711353,0.1,1,0,FastAcc,1,17,Woman,Right,NA,5,TRUE,TRUE,TRUE,TRUE
26,11,1,0.9170322,['c'],1,left,['e'],0,0.1610901,0.2,0,0,FastAcc,1,17,Woman,Right,NA,5,TRUE,TRUE,TRUE,TRUE
27,11,1,0.6504472,['n'],0,left,['e'],0,0.1952825,0.1,1,0,FastAcc,1,17,Woman,Right,NA,5,TRUE,TRUE,TRUE,TRUE
28,11,1,0.7830646,['n'],0,left,['e'],0,0.2222322,0.2,1,0,FastAcc,1,17,Woman,Right,NA,5,TRUE,TRUE,TRUE,TRUE
29,11,1,0.8347195,['n'],0,left,['e'],0,0.262615,0.4,1,0,FastAcc,1,17,Woman,Right,NA,5,TRUE,TRUE,TRUE,TRUE
30,11,1,0.7178973,['n'],1,right,['e'],0,0.2742313,0.2,0,0,FastAcc,1,17,Woman,Right,NA,5,TRUE,TRUE,TRUE,TRUE
31,11,1,0.7336545,['n'],0,left,['e'],0,0.2049247,0.4,1,0,FastAcc,1,17,Woman,Right,NA,5,TRUE,TRUE,TRUE,TRUE
32,11,1,0.6364804,['n'],1,right,['e'],0,0.2695917,0.2,0,0,FastAcc,1,17,Woman,Right,NA,5,TRUE,TRUE,TRUE,TRUE
33,11,1,0.6510842,['n'],1,right,['e'],0,0.2508743,0.2,0,0,FastAcc,1,17,Woman,Right,NA,5,TRUE,TRUE,TRUE,TRUE
34,11,1,0.8499411,['n'],1,right,['e'],0,0.20998,0.4,0,0,FastAcc,1,17,Woman,Right,NA,5,TRUE,TRUE,TRUE,TRUE
35,11,1,1.0180925,['c'],1,left,['e'],0,0.1789539,0.4,0,0,FastAcc,1,17,Woman,Right,NA,5,TRUE,TRUE,TRUE,TRUE
36,11,1,0.9838824,['n'],1,right,['e'],0,0.1826188,0.1,0,0,FastAcc,1,17,Woman,Right,NA,5,TRUE,TRUE,TRUE,TRUE
37,11,1,1.1009765,['c'],0,right,['e'],0,0.2138392,0.2,1,0,FastAcc,1,17,Woman,Right,NA,5,TRUE,TRUE,TRUE,TRUE
38,11,1,0.9011726,['n'],1,right,['e'],0,0.1716835,0.1,0,0,FastAcc,1,17,Woman,Right,NA,5,TRUE,TRUE,TRUE,TRUE
39,11,1,0.9508427,['n'],1,right,['e'],0,0.1940679,0.4,0,0,FastAcc,1,17,Woman,Right,NA,5,TRUE,TRUE,TRUE,TRUE
40,11,1,0.9678662,['c'],0,right,['e'],0,0.2297648,0.4,1,0,FastAcc,1,17,Woman,Right,NA,5,TRUE,TRUE,TRUE,TRUE
41,11,1,1.0018757,['c'],1,left,['u'],1,0.9027364,0.2,1,0,FastAcc,1,17,Woman,Right,NA,5,TRUE,TRUE,TRUE,TRUE
42,11,1,1.0824624,['n'],0,left,['e'],0,0.2027465,0.1,1,0,FastAcc,1,17,Woman,Right,NA,5,TRUE,TRUE,TRUE,TRUE
43,11,1,1.2499068,['n'],1,right,['e'],0,0.2267928,0.1,0,0,FastAcc,1,17,Woman,Right,NA,5,TRUE,TRUE,TRUE,TRUE
44,11,1,0.8512776,['n'],1,right,['e'],0,0.2181577,0.4,0,0,FastAcc,1,17,Woman,Right,NA,5,TRUE,TRUE,TRUE,TRUE
45,11,1,0.9336669,['n'],0,left,['e'],0,0.1746619,0.1,1,0,FastAcc,1,17,Woman,Right,NA,5,TRUE,TRUE,TRUE,TRUE
46,11,1,0.9510271,['c'],1,left,['e'],0,0.2764051,0.2,0,0,FastAcc,1,17,Woman,Right,NA,5,TRUE,TRUE,TRUE,TRUE
47,11,1,0.7664787,['c'],0,right,['u'],1,0.3341621,0.2,0,0,FastAcc,1,17,Woman,Right,NA,5,TRUE,TRUE,TRUE,TRUE
48,11,1,0.9013622,['c'],1,left,['e'],0,0.6064625,0.1,0,0,FastAcc,1,17,Woman,Right,NA,5,TRUE,TRUE,TRUE,TRUE
49,11,1,0.8844291,['c'],1,left,['e'],0,0.2305885,0.1,0,0,FastAcc,1,17,Woman,Right,NA,5,TRUE,TRUE,TRUE,TRUE
50,11,1,1.5178954,['n'],0,left,['e'],0,0.3062911,0.2,1,0,FastAcc,1,17,Woman,Right,NA,5,TRUE,TRUE,TRUE,TRUE
51,11,1,1.0675452,['n'],0,left,['e'],0,0.1580369,0.1,1,0,FastAcc,1,17,Woman,Right,NA,5,TRUE,TRUE,TRUE,TRUE
52,11,1,1.7493587,['c'],1,left,['e'],0,0.2138085,0.1,0,0,FastAcc,1,17,Woman,Right,NA,5,TRUE,TRUE,TRUE,TRUE
53,11,1,1.5668289,['c'],1,left,['e'],0,0.1438367,0.2,0,0,FastAcc,1,17,Woman,Right,NA,5,TRUE,TRUE,TRUE,TRUE
54,11,1,1.284462,['c'],0,right,['e'],0,0.2173696,0.4,1,0,FastAcc,1,17,Woman,Right,NA,5,TRUE,TRUE,TRUE,TRUE
55,11,1,1.317793,['n'],1,right,['e'],0,0.2383954,0.1,0,0,FastAcc,1,17,Woman,Right,NA,5,TRUE,TRUE,TRUE,TRUE
56,11,1,1.0172868,['n'],0,left,['e'],0,0.2388946,0.1,1,0,FastAcc,1,17,Woman,Right,NA,5,TRUE,TRUE,TRUE,TRUE
57,11,1,1.1842939,['n'],1,right,['e'],0,0.1845778,0.4,0,0,FastAcc,1,17,Woman,Right,NA,5,TRUE,TRUE,TRUE,TRUE
58,11,1,1.1849629,['c'],1,left,['e'],0,0.1484422,0.2,0,0,FastAcc,1,17,Woman,Right,NA,5,TRUE,TRUE,TRUE,TRUE
59,11,1,0.9673851,['n'],1,right,['e'],0,0.1543126,0.4,0,0,FastAcc,1,17,Woman,Right,NA,5,TRUE,TRUE,TRUE,TRUE
0,12,1,0.7844039,['n'],1,right,['e'],0,0.1503893,0.4,0,0,FastFast,1,17,Woman,Right,NA,5,TRUE,TRUE,TRUE,TRUE
1,12,1,0.8672447,['c'],1,left,['e'],0,0.1285471,0.1,0,0,FastFast,1,17,Woman,Right,NA,5,TRUE,TRUE,TRUE,TRUE
2,12,1,0.6491455,['n'],1,right,['e'],0,0.1318757,0.4,0,0,FastFast,1,17,Woman,Right,NA,5,TRUE,TRUE,TRUE,TRUE
3,12,1,0.7846614,['c'],1,left,['e'],0,0.145127,0.4,0,0,FastFast,1,17,Woman,Right,NA,5,TRUE,TRUE,TRUE,TRUE
4,12,1,0.7994501,['c'],1,left,['e'],0,0.1743566,0.2,0,0,FastFast,1,17,Woman,Right,NA,5,TRUE,TRUE,TRUE,TRUE
5,12,1,0.7512283,['n'],0,left,['e'],0,0.1713865,0.2,1,0,FastFast,1,17,Woman,Right,NA,5,TRUE,TRUE,TRUE,TRUE
6,12,1,0.6344759,['n'],0,left,['e'],0,0.1576193,0.4,1,0,FastFast,1,17,Woman,Right,NA,5,TRUE,TRUE,TRUE,TRUE
7,12,1,0.7659986,['c'],0,right,['e'],0,0.1563483,0.2,1,0,FastFast,1,17,Woman,Right,NA,5,TRUE,TRUE,TRUE,TRUE
8,12,1,0.7502871,['c'],0,right,['e'],0,0.1540621,0.1,1,0,FastFast,1,17,Woman,Right,NA,5,TRUE,TRUE,TRUE,TRUE
9,12,1,0.733409,['c'],0,right,['e'],0,0.1694679,0.1,1,0,FastFast,1,17,Woman,Right,NA,5,TRUE,TRUE,TRUE,TRUE
10,12,1,0.7994532,['c'],0,right,['e'],0,0.67766,0.4,1,0,FastFast,1,17,Woman,Right,NA,5,TRUE,TRUE,TRUE,TRUE
11,12,1,1.0178076,['n'],1,right,['e'],0,0.2596101,0.2,0,0,FastFast,1,17,Woman,Right,NA,5,TRUE,TRUE,TRUE,TRUE
12,12,1,0.7838623,['c'],1,left,['e'],0,0.156709,0.1,0,0,FastFast,1,17,Woman,Right,NA,5,TRUE,TRUE,TRUE,TRUE
13,12,1,0.8515468,['n'],1,right,['e'],0,0.1509909,0.1,0,0,FastFast,1,17,Woman,Right,NA,5,TRUE,TRUE,TRUE,TRUE
14,12,1,0.7000672,['n'],1,right,['e'],0,0.1835443,0.2,0,0,FastFast,1,17,Woman,Right,NA,5,TRUE,TRUE,TRUE,TRUE
15,12,1,0.8347025,['c'],1,left,['e'],0,0.1619749,0.2,0,0,FastFast,1,17,Woman,Right,NA,5,TRUE,TRUE,TRUE,TRUE
16,12,1,0.7844654,['c'],1,left,['e'],0,0.1580912,0.4,0,0,FastFast,1,17,Woman,Right,NA,5,TRUE,TRUE,TRUE,TRUE
17,12,1,1.000076,['c'],1,left,['e'],0,0.114503,0.2,0,0,FastFast,1,17,Woman,Right,NA,5,TRUE,TRUE,TRUE,TRUE
18,12,1,1.1512574,['c'],1,left,['e'],0,0.1946881,0.1,0,0,FastFast,1,17,Woman,Right,NA,5,TRUE,TRUE,TRUE,TRUE
19,12,1,0.7673656,['n'],1,right,['e'],0,0.174684,0.4,0,0,FastFast,1,17,Woman,Right,NA,5,TRUE,TRUE,TRUE,TRUE
20,12,1,0.9007857,['n'],1,right,['e'],0,0.1343402,0.4,0,0,FastFast,1,17,Woman,Right,NA,5,TRUE,TRUE,TRUE,TRUE
21,12,1,0.8341795,['n'],1,right,['e'],0,0.1310482,0.1,0,0,FastFast,1,17,Woman,Right,NA,5,TRUE,TRUE,TRUE,TRUE
22,12,1,0.7672313,['n'],0,left,['e'],0,0.1452477,0.1,1,0,FastFast,1,17,Woman,Right,NA,5,TRUE,TRUE,TRUE,TRUE
23,12,1,0.7663109,['n'],1,right,['e'],0,0.1908162,0.4,0,0,FastFast,1,17,Woman,Right,NA,5,TRUE,TRUE,TRUE,TRUE
24,12,1,1.1512432,['c'],1,left,['e'],0,0.1078509,0.1,0,0,FastFast,1,17,Woman,Right,NA,5,TRUE,TRUE,TRUE,TRUE
25,12,1,1.984314,['n'],1,right,['e'],0,0.1550582,0.2,0,0,FastFast,1,17,Woman,Right,NA,5,TRUE,TRUE,TRUE,TRUE
26,12,1,0.801351,['n'],0,left,['e'],0,0.1356505,0.1,1,0,FastFast,1,17,Woman,Right,NA,5,TRUE,TRUE,TRUE,TRUE
27,12,1,0.6848035,['c'],1,left,['e'],0,0.1852648,0.4,0,0,FastFast,1,17,Woman,Right,NA,5,TRUE,TRUE,TRUE,TRUE
28,12,1,0.9152407,['c'],1,left,['e'],0,0.1771231,0.1,0,0,FastFast,1,17,Woman,Right,NA,5,TRUE,TRUE,TRUE,TRUE
29,12,1,0.8331814,['c'],1,left,['e'],0,0.13833,0.1,0,0,FastFast,1,17,Woman,Right,NA,5,TRUE,TRUE,TRUE,TRUE
30,12,1,0.7516169,['c'],1,left,['e'],0,0.1690317,0.2,0,0,FastFast,1,17,Woman,Right,NA,5,TRUE,TRUE,TRUE,TRUE
31,12,1,0.7345682,['c'],1,left,['e'],0,0.1674261,0.2,0,0,FastFast,1,17,Woman,Right,NA,5,TRUE,TRUE,TRUE,TRUE
32,12,1,1.0178757,['n'],1,right,['e'],0,0.2680564,0.1,0,0,FastFast,1,17,Woman,Right,NA,5,TRUE,TRUE,TRUE,TRUE
33,12,1,0.9168509,['c'],0,right,['e'],0,0.9584564,0.4,1,0,FastFast,1,17,Woman,Right,NA,5,TRUE,TRUE,TRUE,TRUE
34,12,1,0.79932,['n'],0,left,['e'],0,1.2912816,0.2,1,0,FastFast,1,17,Woman,Right,NA,5,TRUE,TRUE,TRUE,TRUE
35,12,1,1.5004793,['c'],1,left,['e'],0,0.1101872,0.4,0,0,FastFast,1,17,Woman,Right,NA,5,TRUE,TRUE,TRUE,TRUE
36,12,1,0.9670635,['c'],1,left,['e'],0,0.0860532,0.4,0,0,FastFast,1,17,Woman,Right,NA,5,TRUE,TRUE,TRUE,TRUE
37,12,1,1.0515074,['c'],0,right,['e'],0,0.1382668,0.1,1,0,FastFast,1,17,Woman,Right,NA,5,TRUE,TRUE,TRUE,TRUE
38,12,1,1.6345845,['c'],1,left,['e'],0,0.102359,0.2,0,0,FastFast,1,17,Woman,Right,NA,5,TRUE,TRUE,TRUE,TRUE
39,12,1,1.1339683,['n'],1,right,['e'],0,0.1522522,0.2,0,0,FastFast,1,17,Woman,Right,NA,5,TRUE,TRUE,TRUE,TRUE
40,12,1,0.9497197,['n'],0,left,['e'],0,0.1745214,0.1,1,0,FastFast,1,17,Woman,Right,NA,5,TRUE,TRUE,TRUE,TRUE
41,12,1,0.8341389,['n'],1,right,['e'],0,0.1522813,0.2,0,0,FastFast,1,17,Woman,Right,NA,5,TRUE,TRUE,TRUE,TRUE
42,12,1,0.9177396,['n'],1,right,['e'],0,0.0796346,0.4,0,0,FastFast,1,17,Woman,Right,NA,5,TRUE,TRUE,TRUE,TRUE
43,12,1,1.0359968,['n'],1,right,['e'],0,0.0852609,0.2,0,0,FastFast,1,17,Woman,Right,NA,5,TRUE,TRUE,TRUE,TRUE
44,12,1,0.9991203,['c'],1,left,['e'],0,0.1259616,0.1,0,0,FastFast,1,17,Woman,Right,NA,5,TRUE,TRUE,TRUE,TRUE
45,12,1,1.4160545,['c'],1,left,['e'],0,0.0984824,0.4,0,0,FastFast,1,17,Woman,Right,NA,5,TRUE,TRUE,TRUE,TRUE
46,12,1,1.1497006,['c'],0,right,['e'],0,0.2753528,0.1,1,0,FastFast,1,17,Woman,Right,NA,5,TRUE,TRUE,TRUE,TRUE
47,12,1,0.9326863,['n'],1,right,['e'],0,0.1817712,0.4,0,0,FastFast,1,17,Woman,Right,NA,5,TRUE,TRUE,TRUE,TRUE
48,12,1,1.2178958,['n'],0,left,['e'],0,0.206851,0.2,1,0,FastFast,1,17,Woman,Right,NA,5,TRUE,TRUE,TRUE,TRUE
49,12,1,0.8498193,['n'],1,right,['e'],0,0.1044188,0.4,0,0,FastFast,1,17,Woman,Right,NA,5,TRUE,TRUE,TRUE,TRUE
50,12,1,1.0514134,['n'],1,right,['e'],0,0.1409869,0.1,0,0,FastFast,1,17,Woman,Right,NA,5,TRUE,TRUE,TRUE,TRUE
51,12,1,0.9657045,['c'],0,right,['e'],0,0.0994071,0.2,1,0,FastFast,1,17,Woman,Right,NA,5,TRUE,TRUE,TRUE,TRUE
52,12,1,1.1500686,['n'],1,right,['e'],0,0.1159391,0.4,0,0,FastFast,1,17,Woman,Right,NA,5,TRUE,TRUE,TRUE,TRUE
53,12,1,1.2156324,['c'],0,right,['e'],0,0.0970141,0.2,1,0,FastFast,1,17,Woman,Right,NA,5,TRUE,TRUE,TRUE,TRUE
54,12,1,1.3326918,['c'],1,left,['e'],0,0.1532563,0.4,0,0,FastFast,1,17,Woman,Right,NA,5,TRUE,TRUE,TRUE,TRUE
55,12,1,1.399123,['n'],0,left,['e'],0,0.1264637,0.2,1,0,FastFast,1,17,Woman,Right,NA,5,TRUE,TRUE,TRUE,TRUE
56,12,1,0.9007706,['c'],1,left,['e'],0,0.1208163,0.1,0,0,FastFast,1,17,Woman,Right,NA,5,TRUE,TRUE,TRUE,TRUE
57,12,1,1.7336583,['c'],1,left,['e'],0,0.351439,0.2,0,0,FastFast,1,17,Woman,Right,NA,5,TRUE,TRUE,TRUE,TRUE
58,12,1,1.0330962,['n'],1,right,['e'],0,0.1544709,0.1,0,0,FastFast,1,17,Woman,Right,NA,5,TRUE,TRUE,TRUE,TRUE
59,12,1,0.8331964,['n'],1,right,['e'],0,0.1509007,0.4,0,0,FastFast,1,17,Woman,Right,NA,5,TRUE,TRUE,TRUE,TRUE
0,13,1,0.8324301,['n'],1,right,['e'],0,0.1255981,0.4,0,0,AccFast,1,17,Woman,Right,NA,5,TRUE,TRUE,TRUE,TRUE
1,13,1,0.7174168,['n'],1,right,['e'],0,0.173898,0.4,0,0,AccFast,1,17,Woman,Right,NA,5,TRUE,TRUE,TRUE,TRUE
2,13,1,1.0683855,['c'],1,left,['u'],1,0.1908103,0.4,1,0,AccFast,1,17,Woman,Right,NA,5,TRUE,TRUE,TRUE,TRUE
3,13,1,0.9166816,['c'],1,left,['e'],0,0.1970816,0.2,0,0,AccFast,1,17,Woman,Right,NA,5,TRUE,TRUE,TRUE,TRUE
4,13,1,0.7663667,['n'],1,right,['e'],0,0.1618819,0.1,0,0,AccFast,1,17,Woman,Right,NA,5,TRUE,TRUE,TRUE,TRUE
5,13,1,0.7845081,['n'],0,left,['e'],0,0.1255886,0.2,1,0,AccFast,1,17,Woman,Right,NA,5,TRUE,TRUE,TRUE,TRUE
6,13,1,0.7010174,['n'],1,right,['e'],0,0.1271804,0.2,0,0,AccFast,1,17,Woman,Right,NA,5,TRUE,TRUE,TRUE,TRUE
7,13,1,0.8842081,['c'],1,left,['e'],0,0.2176711,0.1,0,0,AccFast,1,17,Woman,Right,NA,5,TRUE,TRUE,TRUE,TRUE
8,13,1,0.8838357,['n'],1,right,['e'],0,0.2401455,0.4,0,0,AccFast,1,17,Woman,Right,NA,5,TRUE,TRUE,TRUE,TRUE
9,13,1,0.9351,['n'],1,right,['e'],0,0.0841448,0.2,0,0,AccFast,1,17,Woman,Right,NA,5,TRUE,TRUE,TRUE,TRUE
10,13,1,0.9012943,['n'],1,right,['e'],0,0.1426515,0.1,0,0,AccFast,1,17,Woman,Right,NA,5,TRUE,TRUE,TRUE,TRUE
11,13,1,0.734201,['n'],1,right,['e'],0,0.142551,0.4,0,0,AccFast,1,17,Woman,Right,NA,5,TRUE,TRUE,TRUE,TRUE
12,13,1,0.7681301,['c'],1,left,['e'],0,0.1568398,0.4,0,0,AccFast,1,17,Woman,Right,NA,5,TRUE,TRUE,TRUE,TRUE
13,13,1,0.7492708,['n'],0,left,['e'],0,0.1246899,0.1,1,0,AccFast,1,17,Woman,Right,NA,5,TRUE,TRUE,TRUE,TRUE
14,13,1,0.7180776,['n'],1,right,['e'],0,0.1241119,0.2,0,0,AccFast,1,17,Woman,Right,NA,5,TRUE,TRUE,TRUE,TRUE
15,13,1,0.7512384,['n'],1,right,['e'],0,0.1088092,0.4,0,0,AccFast,1,17,Woman,Right,NA,5,TRUE,TRUE,TRUE,TRUE
16,13,1,0.7004562,['n'],1,right,['e'],0,0.1102116,0.4,0,0,AccFast,1,17,Woman,Right,NA,5,TRUE,TRUE,TRUE,TRUE
17,13,1,0.6179502,['c'],1,left,['e'],0,0.2758247,0.4,0,0,AccFast,1,17,Woman,Right,NA,5,TRUE,TRUE,TRUE,TRUE
18,13,1,0.6673334,['c'],1,left,['e'],0,0.0968394,0.2,0,0,AccFast,1,17,Woman,Right,NA,5,TRUE,TRUE,TRUE,TRUE
19,13,1,0.9009727,['n'],1,right,['e'],0,0.139263,0.1,0,0,AccFast,1,17,Woman,Right,NA,5,TRUE,TRUE,TRUE,TRUE
20,13,1,0.9848457,['n'],0,left,['e'],0,0.1450325,0.2,1,0,AccFast,1,17,Woman,Right,NA,5,TRUE,TRUE,TRUE,TRUE
21,13,1,0.8506888,['c'],1,left,['e'],0,0.1234337,0.2,0,0,AccFast,1,17,Woman,Right,NA,5,TRUE,TRUE,TRUE,TRUE
22,13,1,0.699804,['n'],1,right,['e'],0,0.1580494,0.4,0,0,AccFast,1,17,Woman,Right,NA,5,TRUE,TRUE,TRUE,TRUE
23,13,1,0.8178254,['n'],1,right,['e'],0,0.1368814,0.4,0,0,AccFast,1,17,Woman,Right,NA,5,TRUE,TRUE,TRUE,TRUE
24,13,1,0.8344685,['c'],1,left,['e'],0,0.1014495,0.2,0,0,AccFast,1,17,Woman,Right,NA,5,TRUE,TRUE,TRUE,TRUE
25,13,1,0.9167205,['c'],1,left,['e'],0,0.0784713,0.1,0,0,AccFast,1,17,Woman,Right,NA,5,TRUE,TRUE,TRUE,TRUE
26,13,1,1.0675088,['c'],1,left,['e'],0,0.0827118,0.2,0,0,AccFast,1,17,Woman,Right,NA,5,TRUE,TRUE,TRUE,TRUE
27,13,1,1.0008028,['c'],1,left,['e'],0,0.3937956,0.1,0,0,AccFast,1,17,Woman,Right,NA,5,TRUE,TRUE,TRUE,TRUE
28,13,1,0.8347825,['n'],1,right,['e'],0,0.1396799,0.4,0,0,AccFast,1,17,Woman,Right,NA,5,TRUE,TRUE,TRUE,TRUE
29,13,1,1.2160582,['n'],0,left,['e'],0,0.0896322,0.1,1,0,AccFast,1,17,Woman,Right,NA,5,TRUE,TRUE,TRUE,TRUE
30,13,1,1.0855724,['n'],0,left,['e'],0,0.1718504,0.4,1,0,AccFast,1,17,Woman,Right,NA,5,TRUE,TRUE,TRUE,TRUE
31,13,1,1.0003453,['c'],1,left,['e'],0,0.1433491,0.4,0,0,AccFast,1,17,Woman,Right,NA,5,TRUE,TRUE,TRUE,TRUE
32,13,1,1.2513345,['n'],1,right,['e'],0,0.1384637,0.4,0,0,AccFast,1,17,Woman,Right,NA,5,TRUE,TRUE,TRUE,TRUE
33,13,1,1.4511971,['c'],1,left,['e'],0,0.1417246,0.1,0,0,AccFast,1,17,Woman,Right,NA,5,TRUE,TRUE,TRUE,TRUE
34,13,1,1.0347274,['c'],1,left,['e'],0,0.1294633,0.4,0,0,AccFast,1,17,Woman,Right,NA,5,TRUE,TRUE,TRUE,TRUE
35,13,1,1.1347447,['n'],0,left,['e'],0,0.1293009,0.2,1,0,AccFast,1,17,Woman,Right,NA,5,TRUE,TRUE,TRUE,TRUE
36,13,1,1.1842575,['c'],0,right,['e'],0,0.1110716,0.1,1,0,AccFast,1,17,Woman,Right,NA,5,TRUE,TRUE,TRUE,TRUE
37,13,1,1.0515695,['n'],1,right,['e'],0,0.1157758,0.1,0,0,AccFast,1,17,Woman,Right,NA,5,TRUE,TRUE,TRUE,TRUE
38,13,1,1.0843828,['n'],1,right,['e'],0,0.1180428,0.1,0,0,AccFast,1,17,Woman,Right,NA,5,TRUE,TRUE,TRUE,TRUE
39,13,1,1.2515762,['c'],0,right,['e'],0,0.0817181,0.2,1,0,AccFast,1,17,Woman,Right,NA,5,TRUE,TRUE,TRUE,TRUE
40,13,1,1.2673812,['n'],0,left,['e'],0,0.1261852,0.2,1,0,AccFast,1,17,Woman,Right,NA,5,TRUE,TRUE,TRUE,TRUE
41,13,1,0.8675916,['n'],0,left,['e'],0,0.1050631,0.2,1,0,AccFast,1,17,Woman,Right,NA,5,TRUE,TRUE,TRUE,TRUE
42,13,1,0.7513375,['n'],1,right,['e'],0,0.1217954,0.2,0,0,AccFast,1,17,Woman,Right,NA,5,TRUE,TRUE,TRUE,TRUE
43,13,1,0.9176867,['n'],0,left,['e'],0,0.7224355,0.2,1,0,AccFast,1,17,Woman,Right,NA,5,TRUE,TRUE,TRUE,TRUE
44,13,1,0.9348741,['n'],0,left,['e'],0,0.0988542,0.1,1,0,AccFast,1,17,Woman,Right,NA,5,TRUE,TRUE,TRUE,TRUE
45,13,1,0.9846162,['n'],0,left,['e'],0,0.0902521,0.1,1,0,AccFast,1,17,Woman,Right,NA,5,TRUE,TRUE,TRUE,TRUE
46,13,1,0.9177593,['n'],1,right,['e'],0,0.1003299,0.1,0,0,AccFast,1,17,Woman,Right,NA,5,TRUE,TRUE,TRUE,TRUE
47,13,1,0.7997448,['n'],1,right,['e'],0,0.0834286,0.4,0,0,AccFast,1,17,Woman,Right,NA,5,TRUE,TRUE,TRUE,TRUE
48,13,1,1.2182725,['c'],0,right,['e'],0,0.0810234,0.2,1,0,AccFast,1,17,Woman,Right,NA,5,TRUE,TRUE,TRUE,TRUE
49,13,1,1.701221,['n'],1,right,['e'],0,0.2683875,0.4,0,0,AccFast,1,17,Woman,Right,NA,5,TRUE,TRUE,TRUE,TRUE
50,13,1,1.3002748,['c'],1,left,['e'],0,0.0964387,0.1,0,0,AccFast,1,17,Woman,Right,NA,5,TRUE,TRUE,TRUE,TRUE
51,13,1,1.0497285,['c'],0,right,['e'],0,0.101149,0.1,1,0,AccFast,1,17,Woman,Right,NA,5,TRUE,TRUE,TRUE,TRUE
52,13,1,0.8006779,['n'],1,right,['e'],0,0.1150712,0.2,0,0,AccFast,1,17,Woman,Right,NA,5,TRUE,TRUE,TRUE,TRUE
53,13,1,0.8161086,['n'],1,right,['e'],0,0.0480253,0.4,0,0,AccFast,1,17,Woman,Right,NA,5,TRUE,TRUE,TRUE,TRUE
54,13,1,0.950969,['c'],0,right,['e'],0,0.0744466,0.2,1,0,AccFast,1,17,Woman,Right,NA,5,TRUE,TRUE,TRUE,TRUE
55,13,1,2.4844037,['c'],1,left,['u'],1,0.9028328,0.1,1,0,AccFast,1,17,Woman,Right,NA,5,TRUE,TRUE,TRUE,TRUE
56,13,1,1.7503246,['n'],0,left,['e'],0,0.1115025,0.1,1,0,AccFast,1,17,Woman,Right,NA,5,TRUE,TRUE,TRUE,TRUE
57,13,1,1.4001957,['c'],1,left,['u'],1,0.5495783,0.4,1,0,AccFast,1,17,Woman,Right,NA,5,TRUE,TRUE,TRUE,TRUE
58,13,1,1.1348564,['n'],0,left,['e'],0,0.148441,0.1,1,0,AccFast,1,17,Woman,Right,NA,5,TRUE,TRUE,TRUE,TRUE
59,13,1,2.3165272,['n'],1,right,['e'],0,0.4532331,0.2,0,0,AccFast,1,17,Woman,Right,NA,5,TRUE,TRUE,TRUE,TRUE
0,14,1,1.4167595,['c'],1,left,['u'],1,0.1602142,0.4,1,0,AccAcc,1,17,Woman,Right,NA,5,TRUE,TRUE,TRUE,TRUE
1,14,1,1.051386,['n'],0,left,['e'],0,0.1142288,0.2,1,0,AccAcc,1,17,Woman,Right,NA,5,TRUE,TRUE,TRUE,TRUE
2,14,1,1.1511128,['n'],0,left,['e'],0,0.1139074,0.2,1,0,AccAcc,1,17,Woman,Right,NA,5,TRUE,TRUE,TRUE,TRUE
3,14,1,1.0511284,['c'],0,right,['e'],0,0.1496926,0.1,1,0,AccAcc,1,17,Woman,Right,NA,5,TRUE,TRUE,TRUE,TRUE
4,14,1,0.7514653,['n'],1,right,['e'],0,0.132014,0.2,0,0,AccAcc,1,17,Woman,Right,NA,5,TRUE,TRUE,TRUE,TRUE
5,14,1,0.9997469,['n'],1,right,['e'],0,0.2336216,0.2,0,0,AccAcc,1,17,Woman,Right,NA,5,TRUE,TRUE,TRUE,TRUE
6,14,1,1.0679129,['c'],1,left,['e'],0,0.4076723,0.2,0,0,AccAcc,1,17,Woman,Right,NA,5,TRUE,TRUE,TRUE,TRUE
7,14,1,1.116349,['n'],1,right,['e'],0,0.1422258,0.4,0,0,AccAcc,1,17,Woman,Right,NA,5,TRUE,TRUE,TRUE,TRUE
8,14,1,0.8512792,['n'],1,right,['e'],0,0.1043657,0.4,0,0,AccAcc,1,17,Woman,Right,NA,5,TRUE,TRUE,TRUE,TRUE
9,14,1,1.1173317,['c'],0,right,['e'],0,0.1550173,0.2,1,0,AccAcc,1,17,Woman,Right,NA,5,TRUE,TRUE,TRUE,TRUE
10,14,1,0.9500985,['c'],1,left,['u'],1,0.7047351,0.4,1,0,AccAcc,1,17,Woman,Right,NA,5,TRUE,TRUE,TRUE,TRUE
11,14,1,0.9178959,['n'],1,right,['e'],0,0.3383657,0.4,0,0,AccAcc,1,17,Woman,Right,NA,5,TRUE,TRUE,TRUE,TRUE
12,14,1,1.1000352,['c'],1,left,['e'],0,0.1720566,0.2,0,0,AccAcc,1,17,Woman,Right,NA,5,TRUE,TRUE,TRUE,TRUE
13,14,1,1.1178171,['n'],1,right,['u'],1,0.2353773,0.4,1,0,AccAcc,1,17,Woman,Right,NA,5,TRUE,TRUE,TRUE,TRUE
14,14,1,1.1681704,['c'],1,left,['e'],0,0.1171068,0.2,0,0,AccAcc,1,17,Woman,Right,NA,5,TRUE,TRUE,TRUE,TRUE
15,14,1,0.918044,['c'],1,left,['e'],0,0.1421253,0.1,0,0,AccAcc,1,17,Woman,Right,NA,5,TRUE,TRUE,TRUE,TRUE
16,14,1,1.1345462,['n'],0,left,['e'],0,0.1579648,0.1,1,0,AccAcc,1,17,Woman,Right,NA,5,TRUE,TRUE,TRUE,TRUE
17,14,1,0.8513894,['n'],1,right,['e'],0,0.1043492,0.1,0,0,AccAcc,1,17,Woman,Right,NA,5,TRUE,TRUE,TRUE,TRUE
18,14,1,1.4175985,['c'],0,right,['e'],0,0.1259176,0.1,1,0,AccAcc,1,17,Woman,Right,NA,5,TRUE,TRUE,TRUE,TRUE
19,14,1,1.1341021,['n'],1,right,['e'],0,0.1107336,0.2,0,0,AccAcc,1,17,Woman,Right,NA,5,TRUE,TRUE,TRUE,TRUE
20,14,1,1.233578,['c'],1,left,['e'],0,0.1087006,0.2,0,0,AccAcc,1,17,Woman,Right,NA,5,TRUE,TRUE,TRUE,TRUE
21,14,1,1.3350779,['c'],1,left,['u'],1,0.1165494,0.4,1,0,AccAcc,1,17,Woman,Right,NA,5,TRUE,TRUE,TRUE,TRUE
22,14,1,2.1511679,['n'],1,right,['e'],0,0.1574087,0.4,0,0,AccAcc,1,17,Woman,Right,NA,5,TRUE,TRUE,TRUE,TRUE
23,14,1,1.7179034,['n'],0,left,['e'],0,0.2123838,0.2,1,0,AccAcc,1,17,Woman,Right,NA,5,TRUE,TRUE,TRUE,TRUE
24,14,1,1.1182188,['n'],1,right,['e'],0,0.1454397,0.2,0,0,AccAcc,1,17,Woman,Right,NA,5,TRUE,TRUE,TRUE,TRUE
25,14,1,1.1323251,['c'],1,left,['e'],0,0.2414413,0.1,0,0,AccAcc,1,17,Woman,Right,NA,5,TRUE,TRUE,TRUE,TRUE
26,14,1,1.1163831,['n'],1,right,['e'],0,0.1575233,0.4,0,0,AccAcc,1,17,Woman,Right,NA,5,TRUE,TRUE,TRUE,TRUE
27,14,1,1.2676777,['n'],1,right,['e'],0,0.1509617,0.4,0,0,AccAcc,1,17,Woman,Right,NA,5,TRUE,TRUE,TRUE,TRUE
28,14,1,1.3845068,['c'],0,right,['e'],0,0.1726967,0.4,1,0,AccAcc,1,17,Woman,Right,NA,5,TRUE,TRUE,TRUE,TRUE
29,14,1,1.1347022,['n'],1,right,['u'],1,0.9703991,0.1,1,0,AccAcc,1,17,Woman,Right,NA,5,TRUE,TRUE,TRUE,TRUE
30,14,1,1.8343431,['n'],0,left,['e'],0,0.8769773,0.1,1,0,AccAcc,1,17,Woman,Right,NA,5,TRUE,TRUE,TRUE,TRUE
31,14,1,1.2014558,['c'],1,left,['e'],0,0.140924,0.4,0,0,AccAcc,1,17,Woman,Right,NA,5,TRUE,TRUE,TRUE,TRUE
32,14,1,1.135136,['n'],1,right,['e'],0,0.1245265,0.1,0,0,AccAcc,1,17,Woman,Right,NA,5,TRUE,TRUE,TRUE,TRUE
33,14,1,1.2677233,['n'],1,right,['e'],0,0.1357735,0.2,0,0,AccAcc,1,17,Woman,Right,NA,5,TRUE,TRUE,TRUE,TRUE
34,14,1,1.7833513,['c'],1,left,['e'],0,0.2218638,0.1,0,0,AccAcc,1,17,Woman,Right,NA,5,TRUE,TRUE,TRUE,TRUE
35,14,1,1.8336971,['n'],0,left,['e'],0,0.174301,0.1,1,0,AccAcc,1,17,Woman,Right,NA,5,TRUE,TRUE,TRUE,TRUE
36,14,1,1.6009881,['c'],1,left,['e'],0,0.1378915,0.1,0,0,AccAcc,1,17,Woman,Right,NA,5,TRUE,TRUE,TRUE,TRUE
37,14,1,1.8334226,['n'],0,left,['e'],0,0.1099991,0.4,1,0,AccAcc,1,17,Woman,Right,NA,5,TRUE,TRUE,TRUE,TRUE
38,14,1,1.13396,['n'],1,right,['u'],1,0.1748998,0.4,1,0,AccAcc,1,17,Woman,Right,NA,5,TRUE,TRUE,TRUE,TRUE
39,14,1,1.3177397,['c'],1,left,['e'],0,0.1676387,0.2,0,0,AccAcc,1,17,Woman,Right,NA,5,TRUE,TRUE,TRUE,TRUE
40,14,1,1.2015925,['n'],0,left,['e'],0,0.0820007,0.2,1,0,AccAcc,1,17,Woman,Right,NA,5,TRUE,TRUE,TRUE,TRUE
41,14,1,1.0331968,['n'],1,right,['e'],0,0.1362315,0.4,0,0,AccAcc,1,17,Woman,Right,NA,5,TRUE,TRUE,TRUE,TRUE
42,14,1,1.0325113,['c'],1,left,['e'],0,0.1394627,0.2,0,0,AccAcc,1,17,Woman,Right,NA,5,TRUE,TRUE,TRUE,TRUE
43,14,1,1.1331301,['c'],1,left,['e'],0,0.1238771,0.4,0,0,AccAcc,1,17,Woman,Right,NA,5,TRUE,TRUE,TRUE,TRUE
44,14,1,1.167261,['n'],1,right,['e'],0,0.1220143,0.4,0,0,AccAcc,1,17,Woman,Right,NA,5,TRUE,TRUE,TRUE,TRUE
45,14,1,1.0516887,['n'],0,left,['e'],0,0.1097971,0.1,1,0,AccAcc,1,17,Woman,Right,NA,5,TRUE,TRUE,TRUE,TRUE
46,14,1,1.5170269,['n'],1,right,['e'],0,0.111567,0.1,0,0,AccAcc,1,17,Woman,Right,NA,5,TRUE,TRUE,TRUE,TRUE
47,14,1,1.367638,['n'],1,right,['e'],0,0.1347923,0.2,0,0,AccAcc,1,17,Woman,Right,NA,5,TRUE,TRUE,TRUE,TRUE
48,14,1,1.3346661,['n'],0,left,['e'],0,0.0946221,0.1,1,0,AccAcc,1,17,Woman,Right,NA,5,TRUE,TRUE,TRUE,TRUE
49,14,1,1.2348798,['n'],1,right,['e'],0,0.1723305,0.2,0,0,AccAcc,1,17,Woman,Right,NA,5,TRUE,TRUE,TRUE,TRUE
50,14,1,1.0338378,['c'],1,left,['e'],0,0.1108861,0.1,0,0,AccAcc,1,17,Woman,Right,NA,5,TRUE,TRUE,TRUE,TRUE
51,14,1,0.8668904,['n'],1,right,['e'],0,0.1067386,0.4,0,0,AccAcc,1,17,Woman,Right,NA,5,TRUE,TRUE,TRUE,TRUE
52,14,1,0.9835856,['n'],1,right,['e'],0,0.0658246,0.1,0,0,AccAcc,1,17,Woman,Right,NA,5,TRUE,TRUE,TRUE,TRUE
53,14,1,1.3998426,['n'],1,right,['e'],0,0.1375043,0.2,0,0,AccAcc,1,17,Woman,Right,NA,5,TRUE,TRUE,TRUE,TRUE
54,14,1,0.8510042,['n'],1,right,['e'],0,0.13248,0.4,0,0,AccAcc,1,17,Woman,Right,NA,5,TRUE,TRUE,TRUE,TRUE
55,14,1,1.184693,['n'],0,left,['e'],0,0.0980901,0.1,1,0,AccAcc,1,17,Woman,Right,NA,5,TRUE,TRUE,TRUE,TRUE
56,14,1,0.9846857,['c'],1,left,['e'],0,0.1371124,0.1,0,0,AccAcc,1,17,Woman,Right,NA,5,TRUE,TRUE,TRUE,TRUE
57,14,1,1.0005225,['c'],1,left,['e'],0,0.1110401,0.2,0,0,AccAcc,1,17,Woman,Right,NA,5,TRUE,TRUE,TRUE,TRUE
58,14,1,1.0839271,['c'],0,right,['e'],0,0.0971211,0.1,1,0,AccAcc,1,17,Woman,Right,NA,5,TRUE,TRUE,TRUE,TRUE
59,14,1,1.1336503,['c'],1,left,['e'],0,0.1463939,0.4,0,0,AccAcc,1,17,Woman,Right,NA,5,TRUE,TRUE,TRUE,TRUE
0,15,1,0.9172911,['c'],1,left,['e'],0,0.1678001,0.2,0,0,FastAcc,1,17,Woman,Right,NA,5,TRUE,TRUE,TRUE,TRUE
1,15,1,0.8492901,['n'],0,left,['e'],0,0.1148873,0.1,1,0,FastAcc,1,17,Woman,Right,NA,5,TRUE,TRUE,TRUE,TRUE
2,15,1,0.9347739,['n'],1,right,['u'],1,0.5059736,0.4,1,0,FastAcc,1,17,Woman,Right,NA,5,TRUE,TRUE,TRUE,TRUE
3,15,1,0.9174593,['n'],0,left,['e'],0,0.1165975,0.4,1,0,FastAcc,1,17,Woman,Right,NA,5,TRUE,TRUE,TRUE,TRUE
4,15,1,1.0012205,['c'],1,left,['u'],1,0.1692854,0.4,1,0,FastAcc,1,17,Woman,Right,NA,5,TRUE,TRUE,TRUE,TRUE
5,15,1,1.0012015,['n'],1,right,['e'],0,0.1250634,0.2,0,0,FastAcc,1,17,Woman,Right,NA,5,TRUE,TRUE,TRUE,TRUE
6,15,1,0.9840979,['n'],0,left,['e'],0,0.1473167,0.1,1,0,FastAcc,1,17,Woman,Right,NA,5,TRUE,TRUE,TRUE,TRUE
7,15,1,0.9017184,['n'],1,right,['u'],1,0.4439225,0.4,1,0,FastAcc,1,17,Woman,Right,NA,5,TRUE,TRUE,TRUE,TRUE
8,15,1,1.2012744,['c'],1,left,['u'],1,0.7971884,0.4,1,0,FastAcc,1,17,Woman,Right,NA,5,TRUE,TRUE,TRUE,TRUE
9,15,1,0.634824,['n'],1,right,['u'],1,1.6381617,0.1,1,0,FastAcc,1,17,Woman,Right,NA,5,TRUE,TRUE,TRUE,TRUE
10,15,1,0.7176749,['n'],1,right,['e'],0,1.1787432,0.2,0,0,FastAcc,1,17,Woman,Right,NA,5,TRUE,TRUE,TRUE,TRUE
11,15,1,0.7832876,['n'],1,right,['e'],0,1.43925,0.1,0,0,FastAcc,1,17,Woman,Right,NA,5,TRUE,TRUE,TRUE,TRUE
12,15,1,0.8347368,['n'],0,left,['e'],0,0.4864809,0.1,1,0,FastAcc,1,17,Woman,Right,NA,5,TRUE,TRUE,TRUE,TRUE
13,15,1,1.2671585,['c'],0,right,['e'],0,0.2277538,0.2,1,0,FastAcc,1,17,Woman,Right,NA,5,TRUE,TRUE,TRUE,TRUE
14,15,1,1.0858678,['c'],1,left,['e'],0,0.1134044,0.2,0,0,FastAcc,1,17,Woman,Right,NA,5,TRUE,TRUE,TRUE,TRUE
15,15,1,1.6148166,['n'],1,right,['e'],0,0.5760792,0.1,0,0,FastAcc,1,17,Woman,Right,NA,5,TRUE,TRUE,TRUE,TRUE
16,15,1,0.9852937,['n'],1,right,['e'],0,0.1309407,0.1,0,0,FastAcc,1,17,Woman,Right,NA,5,TRUE,TRUE,TRUE,TRUE
17,15,1,1.0014236,['c'],0,right,['e'],0,0.2000452,0.4,1,0,FastAcc,1,17,Woman,Right,NA,5,TRUE,TRUE,TRUE,TRUE
18,15,1,1.0340131,['n'],1,right,['e'],0,0.1850769,0.2,0,0,FastAcc,1,17,Woman,Right,NA,5,TRUE,TRUE,TRUE,TRUE
19,15,1,1.1012042,['n'],1,right,['e'],0,0.1523394,0.2,0,0,FastAcc,1,17,Woman,Right,NA,5,TRUE,TRUE,TRUE,TRUE
20,15,1,0.9678447,['n'],1,right,['e'],0,1.0539447,0.1,0,0,FastAcc,1,17,Woman,Right,NA,5,TRUE,TRUE,TRUE,TRUE
21,15,1,0.968089,['n'],1,right,['e'],0,0.0804114,0.1,0,0,FastAcc,1,17,Woman,Right,NA,5,TRUE,TRUE,TRUE,TRUE
22,15,1,1.0009715,['c'],1,left,['e'],0,0.2309965,0.2,0,0,FastAcc,1,17,Woman,Right,NA,5,TRUE,TRUE,TRUE,TRUE
23,15,1,0.9333688,['n'],1,right,['e'],0,0.1388996,0.2,0,0,FastAcc,1,17,Woman,Right,NA,5,TRUE,TRUE,TRUE,TRUE
24,15,1,1.0348498,['c'],1,left,['e'],0,0.14227,0.4,0,0,FastAcc,1,17,Woman,Right,NA,5,TRUE,TRUE,TRUE,TRUE
25,15,1,0.8999932,['n'],0,left,['e'],0,0.1681883,0.2,1,0,FastAcc,1,17,Woman,Right,NA,5,TRUE,TRUE,TRUE,TRUE
26,15,1,1.0675398,['c'],1,left,['e'],0,0.1526707,0.2,0,0,FastAcc,1,17,Woman,Right,NA,5,TRUE,TRUE,TRUE,TRUE
27,15,1,0.7344185,['n'],1,right,['e'],0,0.1995168,0.4,0,0,FastAcc,1,17,Woman,Right,NA,5,TRUE,TRUE,TRUE,TRUE
28,15,1,1.2012615,['c'],0,right,['e'],0,0.1459128,0.1,1,0,FastAcc,1,17,Woman,Right,NA,5,TRUE,TRUE,TRUE,TRUE
29,15,1,0.6670703,['n'],0,left,['e'],0,0.0844286,0.2,1,0,FastAcc,1,17,Woman,Right,NA,5,TRUE,TRUE,TRUE,TRUE
30,15,1,1.0666634,['n'],1,right,['e'],0,0.0722236,0.2,0,0,FastAcc,1,17,Woman,Right,NA,5,TRUE,TRUE,TRUE,TRUE
31,15,1,0.9178146,['n'],1,right,['e'],0,0.2752215,0.2,0,0,FastAcc,1,17,Woman,Right,NA,5,TRUE,TRUE,TRUE,TRUE
32,15,1,0.8345795,['n'],1,right,['e'],0,0.5058892,0.1,0,0,FastAcc,1,17,Woman,Right,NA,5,TRUE,TRUE,TRUE,TRUE
33,15,1,0.9513927,['c'],0,right,['e'],0,0.2579303,0.2,1,0,FastAcc,1,17,Woman,Right,NA,5,TRUE,TRUE,TRUE,TRUE
34,15,1,0.8009764,['c'],0,right,['e'],0,0.186405,0.1,1,0,FastAcc,1,17,Woman,Right,NA,5,TRUE,TRUE,TRUE,TRUE
35,15,1,0.900883,['c'],0,right,['e'],0,0.1454018,0.2,1,0,FastAcc,1,17,Woman,Right,NA,5,TRUE,TRUE,TRUE,TRUE
36,15,1,0.9847082,['c'],1,left,['u'],1,0.2472409,0.1,1,0,FastAcc,1,17,Woman,Right,NA,5,TRUE,TRUE,TRUE,TRUE
37,15,1,0.9179037,['c'],1,left,['e'],0,0.2822739,0.1,0,0,FastAcc,1,17,Woman,Right,NA,5,TRUE,TRUE,TRUE,TRUE
38,15,1,0.9348678,['c'],0,right,['u'],1,1.0040066,0.1,0,0,FastAcc,1,17,Woman,Right,NA,5,TRUE,TRUE,TRUE,TRUE
39,15,1,1.1011263,['c'],1,left,['u'],1,1.0676839,0.4,1,0,FastAcc,1,17,Woman,Right,NA,5,TRUE,TRUE,TRUE,TRUE
40,15,1,1.0512813,['c'],1,left,['e'],0,0.2483375,0.2,0,0,FastAcc,1,17,Woman,Right,NA,5,TRUE,TRUE,TRUE,TRUE
41,15,1,0.9502905,['c'],1,left,['u'],1,0.2667177,0.4,1,0,FastAcc,1,17,Woman,Right,NA,5,TRUE,TRUE,TRUE,TRUE
42,15,1,2.4176251,['n'],1,right,['e'],0,0.1940855,0.1,0,0,FastAcc,1,17,Woman,Right,NA,5,TRUE,TRUE,TRUE,TRUE
43,15,1,1.1343157,['n'],0,left,['e'],0,0.303891,0.1,1,0,FastAcc,1,17,Woman,Right,NA,5,TRUE,TRUE,TRUE,TRUE
44,15,1,0.9500635,['c'],0,right,['e'],0,0.1763247,0.2,1,0,FastAcc,1,17,Woman,Right,NA,5,TRUE,TRUE,TRUE,TRUE
45,15,1,1.0838126,['c'],1,left,['e'],0,1.4409439,0.4,0,0,FastAcc,1,17,Woman,Right,NA,5,TRUE,TRUE,TRUE,TRUE
46,15,1,1.1007572,['n'],1,right,['e'],0,0.1740428,0.4,0,0,FastAcc,1,17,Woman,Right,NA,5,TRUE,TRUE,TRUE,TRUE
47,15,1,0.7358986,['n'],1,right,['e'],0,0.2043535,0.4,0,0,FastAcc,1,17,Woman,Right,NA,5,TRUE,TRUE,TRUE,TRUE
48,15,1,1.1184512,['n'],1,right,['e'],0,0.2020712,0.2,0,0,FastAcc,1,17,Woman,Right,NA,5,TRUE,TRUE,TRUE,TRUE
49,15,1,1.0176684,['c'],1,left,['e'],0,0.3160497,0.1,0,0,FastAcc,1,17,Woman,Right,NA,5,TRUE,TRUE,TRUE,TRUE
50,15,1,0.7845102,['n'],0,left,['u'],1,0.3384948,0.4,0,0,FastAcc,1,17,Woman,Right,NA,5,TRUE,TRUE,TRUE,TRUE
51,15,1,0.9664679,['c'],1,left,['u'],1,0.2087893,0.4,1,0,FastAcc,1,17,Woman,Right,NA,5,TRUE,TRUE,TRUE,TRUE
52,15,1,1.0526216,['n'],0,left,['e'],0,0.1290719,0.1,1,0,FastAcc,1,17,Woman,Right,NA,5,TRUE,TRUE,TRUE,TRUE
53,15,1,0.9006139,['n'],0,left,['e'],0,0.1222693,0.1,1,0,FastAcc,1,17,Woman,Right,NA,5,TRUE,TRUE,TRUE,TRUE
54,15,1,1.1511782,['c'],1,left,['e'],0,0.426013,0.4,0,0,FastAcc,1,17,Woman,Right,NA,5,TRUE,TRUE,TRUE,TRUE
55,15,1,1.0015609,['n'],1,right,['u'],1,0.4678091,0.4,1,0,FastAcc,1,17,Woman,Right,NA,5,TRUE,TRUE,TRUE,TRUE
56,15,1,0.9182891,['c'],1,left,['u'],1,0.2709351,0.4,1,0,FastAcc,1,17,Woman,Right,NA,5,TRUE,TRUE,TRUE,TRUE
57,15,1,1.0678796,['c'],1,left,['e'],0,1.9159852,0.4,0,0,FastAcc,1,17,Woman,Right,NA,5,TRUE,TRUE,TRUE,TRUE
58,15,1,1.1008672,['c'],1,left,['e'],0,0.3900522,0.2,0,0,FastAcc,1,17,Woman,Right,NA,5,TRUE,TRUE,TRUE,TRUE
59,15,1,1.0505163,['c'],1,left,['e'],0,0.4151831,0.4,0,0,FastAcc,1,17,Woman,Right,NA,5,TRUE,TRUE,TRUE,TRUE
0,4,1,0.9180663,['n'],0,left,['u'],0,1.6043216,0.1,1,0,FastFast,2,19,Woman,Right,NA,5,TRUE,TRUE,TRUE,TRUE
1,4,1,0.7332258,['n'],0,left,['u'],0,0.6653152,0.1,1,0,FastFast,2,19,Woman,Right,NA,5,TRUE,TRUE,TRUE,TRUE
2,4,1,0.6836865,['c'],1,left,['e'],1,0.3251704,0.4,1,0,FastFast,2,19,Woman,Right,NA,5,TRUE,TRUE,TRUE,TRUE
3,4,1,0.6665458,['n'],1,right,['e'],1,0.8318437,0.4,1,0,FastFast,2,19,Woman,Right,NA,5,TRUE,TRUE,TRUE,TRUE
4,4,1,1.4174105,['n'],0,left,['u'],0,0.7765573,0.2,1,0,FastFast,2,19,Woman,Right,NA,5,TRUE,TRUE,TRUE,TRUE
5,4,1,1.3516136,['n'],1,right,['e'],1,0.4543588,0.4,1,0,FastFast,2,19,Woman,Right,NA,5,TRUE,TRUE,TRUE,TRUE
6,4,1,1.1162127,['c'],1,left,['u'],0,0.5700529,0.2,0,0,FastFast,2,19,Woman,Right,NA,5,TRUE,TRUE,TRUE,TRUE
7,4,1,1.5014958,['n'],1,right,['e'],1,0.361067,0.2,1,0,FastFast,2,19,Woman,Right,NA,5,TRUE,TRUE,TRUE,TRUE
8,4,1,1.5683635,['n'],1,right,['e'],1,0.6545471,0.4,1,0,FastFast,2,19,Woman,Right,NA,5,TRUE,TRUE,TRUE,TRUE
9,4,1,1.2512599,['n'],0,left,['u'],0,0.3727681,0.2,1,0,FastFast,2,19,Woman,Right,NA,5,TRUE,TRUE,TRUE,TRUE
10,4,1,1.4335419,['n'],0,left,['e'],1,0.7675767,0.2,0,0,FastFast,2,19,Woman,Right,NA,5,TRUE,TRUE,TRUE,TRUE
11,4,1,1.051327,['n'],1,right,['e'],1,0.5208793,0.1,1,0,FastFast,2,19,Woman,Right,NA,5,TRUE,TRUE,TRUE,TRUE
12,4,1,1.0345993,['n'],0,left,['u'],0,0.7012604,0.4,1,0,FastFast,2,19,Woman,Right,NA,5,TRUE,TRUE,TRUE,TRUE
13,4,1,1.3172871,['n'],0,left,['e'],1,0.638694,0.1,0,0,FastFast,2,19,Woman,Right,NA,5,TRUE,TRUE,TRUE,TRUE
14,4,1,1.6017122,['n'],1,right,['u'],0,0.3598383,0.1,0,0,FastFast,2,19,Woman,Right,NA,5,TRUE,TRUE,TRUE,TRUE
15,4,1,1.3341615,['n'],1,right,['u'],0,0.3433582,0.1,0,0,FastFast,2,19,Woman,Right,NA,5,TRUE,TRUE,TRUE,TRUE
16,4,1,2.2679744,['n'],1,right,['u'],0,0.433081,0.4,0,0,FastFast,2,19,Woman,Right,NA,5,TRUE,TRUE,TRUE,TRUE
17,4,1,1.3670638,['n'],0,left,['u'],0,0.5394935,0.1,1,0,FastFast,2,19,Woman,Right,NA,5,TRUE,TRUE,TRUE,TRUE
18,4,1,1.2179252,['c'],1,left,['e'],1,0.903649,0.2,1,0,FastFast,2,19,Woman,Right,NA,5,TRUE,TRUE,TRUE,TRUE
19,4,1,1.2670024,['n'],0,left,['e'],1,0.6282729,0.2,0,0,FastFast,2,19,Woman,Right,NA,5,TRUE,TRUE,TRUE,TRUE
20,4,1,1.2352566,['n'],0,left,['u'],0,0.5235832,0.1,1,0,FastFast,2,19,Woman,Right,NA,5,TRUE,TRUE,TRUE,TRUE
21,4,1,2.2015838,['n'],0,left,['e'],1,0.3053513,0.4,0,0,FastFast,2,19,Woman,Right,NA,5,TRUE,TRUE,TRUE,TRUE
22,4,1,1.0509969,['n'],1,right,['e'],1,0.2536514,0.2,1,0,FastFast,2,19,Woman,Right,NA,5,TRUE,TRUE,TRUE,TRUE
23,4,1,1.3179297,['n'],0,left,['e'],1,0.2248252,0.1,0,0,FastFast,2,19,Woman,Right,NA,5,TRUE,TRUE,TRUE,TRUE
24,4,1,0.9014508,['c'],0,right,['e'],1,0.4866525,0.2,0,0,FastFast,2,19,Woman,Right,NA,5,TRUE,TRUE,TRUE,TRUE
25,4,1,1.484487,['n'],0,left,['e'],1,0.4423746,0.4,0,0,FastFast,2,19,Woman,Right,NA,5,TRUE,TRUE,TRUE,TRUE
26,4,1,0.9517704,['n'],1,right,['u'],0,0.2931905,0.2,0,0,FastFast,2,19,Woman,Right,NA,5,TRUE,TRUE,TRUE,TRUE
27,4,1,1.1172687,['n'],1,right,['u'],0,0.2874986,0.2,0,0,FastFast,2,19,Woman,Right,NA,5,TRUE,TRUE,TRUE,TRUE
28,4,1,1.4182004,['n'],0,left,['e'],1,0.2537156,0.1,0,0,FastFast,2,19,Woman,Right,NA,5,TRUE,TRUE,TRUE,TRUE
29,4,1,1.2512146,['n'],0,left,['e'],1,0.532037,0.4,0,0,FastFast,2,19,Woman,Right,NA,5,TRUE,TRUE,TRUE,TRUE
30,4,1,1.0837328,['c'],0,right,['u'],0,0.3581491,0.2,1,0,FastFast,2,19,Woman,Right,NA,5,TRUE,TRUE,TRUE,TRUE
31,4,1,1.5184062,['n'],0,left,['e'],1,0.4134194,0.1,0,0,FastFast,2,19,Woman,Right,NA,5,TRUE,TRUE,TRUE,TRUE
32,4,1,1.284613,['n'],1,right,['u'],0,0.3955266,0.1,0,0,FastFast,2,19,Woman,Right,NA,5,TRUE,TRUE,TRUE,TRUE
33,4,1,1.1998088,['c'],1,left,['u'],0,0.7345153,0.2,0,0,FastFast,2,19,Woman,Right,NA,5,TRUE,TRUE,TRUE,TRUE
34,4,1,1.1847791,['n'],1,right,['e'],1,0.4196274,0.4,1,0,FastFast,2,19,Woman,Right,NA,5,TRUE,TRUE,TRUE,TRUE
35,4,1,1.3671926,['c'],1,left,['e'],1,0.6383237,0.4,1,0,FastFast,2,19,Woman,Right,NA,5,TRUE,TRUE,TRUE,TRUE
36,4,1,1.8003925,['n'],0,left,['u'],0,0.3834869,0.2,1,0,FastFast,2,19,Woman,Right,NA,5,TRUE,TRUE,TRUE,TRUE
37,4,1,2.6485405,['n'],1,right,['e'],1,0.4893369,0.4,1,0,FastFast,2,19,Woman,Right,NA,5,TRUE,TRUE,TRUE,TRUE
38,4,1,1.9507955,['c'],1,left,['u'],0,0.5536335,0.1,0,0,FastFast,2,19,Woman,Right,NA,5,TRUE,TRUE,TRUE,TRUE
39,4,1,1.2837863,['n'],1,right,['e'],1,0.786731,0.2,1,0,FastFast,2,19,Woman,Right,NA,5,TRUE,TRUE,TRUE,TRUE
40,4,1,2.0511967,['n'],1,right,['u'],0,0.8524404,0.1,0,0,FastFast,2,19,Woman,Right,NA,5,TRUE,TRUE,TRUE,TRUE
41,4,1,1.7009839,['c'],1,left,['u'],0,0.5277801,0.1,0,0,FastFast,2,19,Woman,Right,NA,5,TRUE,TRUE,TRUE,TRUE
42,4,1,1.851245,['c'],1,left,['u'],0,0.5163895,0.2,0,0,FastFast,2,19,Woman,Right,NA,5,TRUE,TRUE,TRUE,TRUE
43,4,1,1.6684835,['n'],1,right,['u'],0,0.5266162,0.4,0,0,FastFast,2,19,Woman,Right,NA,5,TRUE,TRUE,TRUE,TRUE
44,4,1,1.6846741,['n'],1,right,['e'],1,0.4727864,0.4,1,0,FastFast,2,19,Woman,Right,NA,5,TRUE,TRUE,TRUE,TRUE
45,4,1,1.4173663,['n'],1,right,['e'],1,0.5118512,0.2,1,0,FastFast,2,19,Woman,Right,NA,5,TRUE,TRUE,TRUE,TRUE
46,4,1,1.9832093,['c'],0,right,['u'],0,0.5102526,0.1,1,0,FastFast,2,19,Woman,Right,NA,5,TRUE,TRUE,TRUE,TRUE
47,4,1,2.2849976,['n'],1,right,['e'],1,0.5453928,0.1,1,0,FastFast,2,19,Woman,Right,NA,5,TRUE,TRUE,TRUE,TRUE
48,4,1,1.7014318,['n'],1,right,['u'],0,0.3775477,0.2,0,0,FastFast,2,19,Woman,Right,NA,5,TRUE,TRUE,TRUE,TRUE
49,4,1,1.4170456,['c'],0,right,['u'],0,0.9333533,0.4,1,0,FastFast,2,19,Woman,Right,NA,5,TRUE,TRUE,TRUE,TRUE
50,4,1,2.2000085,['n'],1,right,['u'],0,0.3625181,0.1,0,0,FastFast,2,19,Woman,Right,NA,5,TRUE,TRUE,TRUE,TRUE
51,4,1,2.0332302,['c'],1,left,['e'],1,0.3482904,0.4,1,0,FastFast,2,19,Woman,Right,NA,5,TRUE,TRUE,TRUE,TRUE
52,4,1,1.7011358,['n'],1,right,['u'],0,0.3002624,0.4,0,0,FastFast,2,19,Woman,Right,NA,5,TRUE,TRUE,TRUE,TRUE
53,4,1,1.5013366,['c'],1,left,['e'],1,0.4864354,0.4,1,0,FastFast,2,19,Woman,Right,NA,5,TRUE,TRUE,TRUE,TRUE
54,4,1,2.5177665,['n'],1,right,['u'],0,0.449542,0.1,0,0,FastFast,2,19,Woman,Right,NA,5,TRUE,TRUE,TRUE,TRUE
55,4,1,1.5511774,['c'],1,left,['u'],0,0.3552979,0.1,0,0,FastFast,2,19,Woman,Right,NA,5,TRUE,TRUE,TRUE,TRUE
56,4,1,1.366612,['c'],1,left,['e'],1,0.3053807,0.4,1,0,FastFast,2,19,Woman,Right,NA,5,TRUE,TRUE,TRUE,TRUE
57,4,1,1.8008197,['c'],1,left,['e'],1,0.3351897,0.4,1,0,FastFast,2,19,Woman,Right,NA,5,TRUE,TRUE,TRUE,TRUE
58,4,1,1.4012337,['c'],0,right,['u'],0,0.8921212,0.2,1,0,FastFast,2,19,Woman,Right,NA,5,TRUE,TRUE,TRUE,TRUE
59,4,1,3.068347,['n'],1,right,['u'],0,0.352706,0.2,0,0,FastFast,2,19,Woman,Right,NA,5,TRUE,TRUE,TRUE,TRUE
0,5,1,4.8344773,['c'],0,right,['u'],0,0.5017935,0.1,1,0,AccFast,2,19,Woman,Right,NA,5,TRUE,TRUE,TRUE,TRUE
1,5,1,3.3683122,['n'],1,right,['u'],0,0.8287114,0.1,0,0,AccFast,2,19,Woman,Right,NA,5,TRUE,TRUE,TRUE,TRUE
2,5,1,3.8331559,['n'],1,right,['u'],0,0.7907475,0.1,0,0,AccFast,2,19,Woman,Right,NA,5,TRUE,TRUE,TRUE,TRUE
3,5,1,2.3686114,['c'],1,left,['u'],0,0.4572067,0.1,0,0,AccFast,2,19,Woman,Right,NA,5,TRUE,TRUE,TRUE,TRUE
4,5,1,1.4175182,['n'],1,right,['e'],1,0.4491552,0.4,1,0,AccFast,2,19,Woman,Right,NA,5,TRUE,TRUE,TRUE,TRUE
5,5,1,3.2675217,['c'],1,left,['u'],0,0.9424657,0.1,0,0,AccFast,2,19,Woman,Right,NA,5,TRUE,TRUE,TRUE,TRUE
6,5,1,2.4330299,['n'],1,right,['u'],0,0.5389818,0.2,0,0,AccFast,2,19,Woman,Right,NA,5,TRUE,TRUE,TRUE,TRUE
7,5,1,4.6667286,['n'],1,right,['u'],0,0.6860437,0.4,0,0,AccFast,2,19,Woman,Right,NA,5,TRUE,TRUE,TRUE,TRUE
8,5,1,4.0524488,['n'],0,left,['u'],0,0.6101596,0.1,1,0,AccFast,2,19,Woman,Right,NA,5,TRUE,TRUE,TRUE,TRUE
9,5,1,1.3008387,['n'],1,right,['e'],1,0.2323593,0.4,1,0,AccFast,2,19,Woman,Right,NA,5,TRUE,TRUE,TRUE,TRUE
11,5,1,3.8343059,['n'],1,right,['e'],1,1.2029773,0.4,1,0,AccFast,2,19,Woman,Right,NA,5,TRUE,TRUE,TRUE,TRUE
12,5,1,1.867842,['c'],1,left,['e'],1,1.0667428,0.4,1,0,AccFast,2,19,Woman,Right,NA,5,TRUE,TRUE,TRUE,TRUE
13,5,1,4.0177194,['c'],1,left,['u'],0,1.4102781,0.1,0,0,AccFast,2,19,Woman,Right,NA,5,TRUE,TRUE,TRUE,TRUE
14,5,1,2.7510626,['n'],0,left,['e'],1,0.414365,0.2,0,0,AccFast,2,19,Woman,Right,NA,5,TRUE,TRUE,TRUE,TRUE
15,5,1,4.3001937,['n'],0,left,['u'],0,0.5645574,0.1,1,0,AccFast,2,19,Woman,Right,NA,5,TRUE,TRUE,TRUE,TRUE
16,5,1,2.4329018,['n'],1,right,['e'],1,0.4306727,0.1,1,0,AccFast,2,19,Woman,Right,NA,5,TRUE,TRUE,TRUE,TRUE
17,5,1,2.6675188,['n'],0,left,['u'],0,0.421225,0.2,1,0,AccFast,2,19,Woman,Right,NA,5,TRUE,TRUE,TRUE,TRUE
18,5,1,2.2843593,['c'],1,left,['e'],1,0.4274027,0.4,1,0,AccFast,2,19,Woman,Right,NA,5,TRUE,TRUE,TRUE,TRUE
19,5,1,4.7340562,['n'],1,right,['e'],1,1.4722773,0.2,1,0,AccFast,2,19,Woman,Right,NA,5,TRUE,TRUE,TRUE,TRUE
20,5,1,3.0339209,['n'],0,left,['u'],0,0.6545621,0.2,1,0,AccFast,2,19,Woman,Right,NA,5,TRUE,TRUE,TRUE,TRUE
22,5,1,3.8675468,['c'],1,left,['e'],1,0.6145512,0.2,1,0,AccFast,2,19,Woman,Right,NA,5,TRUE,TRUE,TRUE,TRUE
23,5,1,4.2668368,['c'],1,left,['e'],1,0.5337099,0.4,1,0,AccFast,2,19,Woman,Right,NA,5,TRUE,TRUE,TRUE,TRUE
24,5,1,2.7845483,['c'],1,left,['e'],1,0.41953,0.2,1,0,AccFast,2,19,Woman,Right,NA,5,TRUE,TRUE,TRUE,TRUE
25,5,1,2.950718,['n'],1,right,['e'],1,0.3518338,0.4,1,0,AccFast,2,19,Woman,Right,NA,5,TRUE,TRUE,TRUE,TRUE
26,5,1,1.9996176,['c'],1,left,['e'],1,0.5474363,0.1,1,0,AccFast,2,19,Woman,Right,NA,5,TRUE,TRUE,TRUE,TRUE
27,5,1,4.0017004,['n'],0,left,['u'],0,0.4800948,0.1,1,0,AccFast,2,19,Woman,Right,NA,5,TRUE,TRUE,TRUE,TRUE
28,5,1,3.3160287,['n'],1,right,['e'],1,0.4439675,0.1,1,0,AccFast,2,19,Woman,Right,NA,5,TRUE,TRUE,TRUE,TRUE
29,5,1,4.0677568,['c'],1,left,['u'],0,0.5539603,0.1,0,0,AccFast,2,19,Woman,Right,NA,5,TRUE,TRUE,TRUE,TRUE
30,5,1,3.5162584,['n'],0,left,['u'],0,1.1138208,0.2,1,0,AccFast,2,19,Woman,Right,NA,5,TRUE,TRUE,TRUE,TRUE
31,5,1,2.067403,['n'],1,right,['e'],1,0.3963962,0.4,1,0,AccFast,2,19,Woman,Right,NA,5,TRUE,TRUE,TRUE,TRUE
32,5,1,1.584215,['n'],1,right,['e'],1,0.415072,0.2,1,0,AccFast,2,19,Woman,Right,NA,5,TRUE,TRUE,TRUE,TRUE
33,5,1,3.1347206,['n'],0,left,['u'],0,0.6113559,0.1,1,0,AccFast,2,19,Woman,Right,NA,5,TRUE,TRUE,TRUE,TRUE
34,5,1,3.5675459,['n'],1,right,['u'],0,0.5277145,0.2,0,0,AccFast,2,19,Woman,Right,NA,5,TRUE,TRUE,TRUE,TRUE
35,5,1,2.3844712,['c'],1,left,['e'],1,0.6536029,0.2,1,0,AccFast,2,19,Woman,Right,NA,5,TRUE,TRUE,TRUE,TRUE
36,5,1,2.8490426,['c'],1,left,['e'],1,0.7255066,0.4,1,0,AccFast,2,19,Woman,Right,NA,5,TRUE,TRUE,TRUE,TRUE
37,5,1,4.6673683,['n'],1,right,['u'],0,1.0712841,0.2,0,0,AccFast,2,19,Woman,Right,NA,5,TRUE,TRUE,TRUE,TRUE
38,5,1,3.4514068,['n'],1,right,['u'],0,0.8933265,0.2,0,0,AccFast,2,19,Woman,Right,NA,5,TRUE,TRUE,TRUE,TRUE
39,5,1,4.4513138,['c'],0,right,['u'],0,0.5549563,0.4,1,0,AccFast,2,19,Woman,Right,NA,5,TRUE,TRUE,TRUE,TRUE
40,5,1,4.6510054,['c'],0,right,['u'],0,0.9095478,0.1,1,0,AccFast,2,19,Woman,Right,NA,5,TRUE,TRUE,TRUE,TRUE
41,5,1,4.501061,['n'],0,left,['u'],0,0.8078432,0.4,1,0,AccFast,2,19,Woman,Right,NA,5,TRUE,TRUE,TRUE,TRUE
42,5,1,2.350679,['c'],1,left,['u'],0,0.7801175,0.4,0,0,AccFast,2,19,Woman,Right,NA,5,TRUE,TRUE,TRUE,TRUE
43,5,1,4.3339964,['c'],1,left,['u'],0,0.5941327,0.2,0,0,AccFast,2,19,Woman,Right,NA,5,TRUE,TRUE,TRUE,TRUE
44,5,1,4.0016649,['n'],1,right,['u'],0,1.5331888,0.4,0,0,AccFast,2,19,Woman,Right,NA,5,TRUE,TRUE,TRUE,TRUE
45,5,1,4.6502177,['n'],0,left,['u'],0,1.032406,0.1,1,0,AccFast,2,19,Woman,Right,NA,5,TRUE,TRUE,TRUE,TRUE
46,5,1,2.3832976,['n'],1,right,['u'],0,1.2830784,0.1,0,0,AccFast,2,19,Woman,Right,NA,5,TRUE,TRUE,TRUE,TRUE
47,5,1,4.4005308,['n'],0,left,['u'],0,0.7377038,0.2,1,0,AccFast,2,19,Woman,Right,NA,5,TRUE,TRUE,TRUE,TRUE
48,5,1,2.7843218,['n'],1,right,['e'],1,0.6953995,0.4,1,0,AccFast,2,19,Woman,Right,NA,5,TRUE,TRUE,TRUE,TRUE
50,5,1,3.6174805,['n'],1,right,['u'],0,0.6960031,0.1,0,0,AccFast,2,19,Woman,Right,NA,5,TRUE,TRUE,TRUE,TRUE
51,5,1,2.8994617,['n'],1,right,['u'],0,0.5395314,0.4,0,0,AccFast,2,19,Woman,Right,NA,5,TRUE,TRUE,TRUE,TRUE
52,5,1,4.3824512,['n'],1,right,['u'],0,0.5858163,0.4,0,0,AccFast,2,19,Woman,Right,NA,5,TRUE,TRUE,TRUE,TRUE
53,5,1,2.3014057,['c'],1,left,['e'],1,0.711452,0.4,1,0,AccFast,2,19,Woman,Right,NA,5,TRUE,TRUE,TRUE,TRUE
54,5,1,4.4850272,['n'],1,right,['u'],0,0.3792174,0.2,0,0,AccFast,2,19,Woman,Right,NA,5,TRUE,TRUE,TRUE,TRUE
55,5,1,1.5512372,['c'],1,left,['e'],1,0.6396868,0.4,1,0,AccFast,2,19,Woman,Right,NA,5,TRUE,TRUE,TRUE,TRUE
57,5,1,3.3336477,['c'],1,left,['u'],0,1.1349315,0.2,0,0,AccFast,2,19,Woman,Right,NA,5,TRUE,TRUE,TRUE,TRUE
58,5,1,3.450515,['c'],1,left,['e'],1,1.2100669,0.4,1,0,AccFast,2,19,Woman,Right,NA,5,TRUE,TRUE,TRUE,TRUE
59,5,1,1.8012986,['n'],1,right,['u'],0,0.7397868,0.2,0,0,AccFast,2,19,Woman,Right,NA,5,TRUE,TRUE,TRUE,TRUE
0,6,1,3.551442,['n'],0,left,['u'],0,3.6842062,0.2,1,0,AccAcc,2,19,Woman,Right,NA,5,TRUE,TRUE,TRUE,TRUE
1,6,1,4.1171782,['n'],1,right,['e'],1,0.7825702,0.2,1,0,AccAcc,2,19,Woman,Right,NA,5,TRUE,TRUE,TRUE,TRUE
2,6,1,4.0850693,['c'],1,left,['u'],0,1.5672067,0.4,0,0,AccAcc,2,19,Woman,Right,NA,5,TRUE,TRUE,TRUE,TRUE
4,6,1,4.3659074,['c'],1,left,['u'],0,0.9517731,0.1,0,0,AccAcc,2,19,Woman,Right,NA,5,TRUE,TRUE,TRUE,TRUE
5,6,1,1.5011914,['n'],1,right,['e'],1,1.0638234,0.4,1,0,AccAcc,2,19,Woman,Right,NA,5,TRUE,TRUE,TRUE,TRUE
6,6,1,4.2343405,['c'],0,right,['u'],0,4.822351,0.1,1,0,AccAcc,2,19,Woman,Right,NA,5,TRUE,TRUE,TRUE,TRUE
7,6,1,3.9839437,['n'],1,right,['e'],1,4.0898642,0.1,1,0,AccAcc,2,19,Woman,Right,NA,5,TRUE,TRUE,TRUE,TRUE
9,6,1,4.0512821,['n'],1,right,['u'],0,2.6140617,0.2,0,0,AccAcc,2,19,Woman,Right,NA,5,TRUE,TRUE,TRUE,TRUE
11,6,1,3.5833733,['c'],1,left,['u'],0,2.2674799,0.4,0,0,AccAcc,2,19,Woman,Right,NA,5,TRUE,TRUE,TRUE,TRUE
12,6,1,1.8499871,['c'],1,left,['u'],0,2.2498806,0.4,0,0,AccAcc,2,19,Woman,Right,NA,5,TRUE,TRUE,TRUE,TRUE
13,6,1,4.2820344,['n'],0,left,['u'],0,2.7432042,0.1,1,0,AccAcc,2,19,Woman,Right,NA,5,TRUE,TRUE,TRUE,TRUE
14,6,1,4.5847591,['c'],1,left,['u'],0,2.1806123,0.1,0,0,AccAcc,2,19,Woman,Right,NA,5,TRUE,TRUE,TRUE,TRUE
15,6,1,4.4170822,['n'],1,right,['e'],1,2.9271392,0.1,1,0,AccAcc,2,19,Woman,Right,NA,5,TRUE,TRUE,TRUE,TRUE
16,6,1,2.7169711,['n'],1,right,['e'],1,1.4247334,0.4,1,0,AccAcc,2,19,Woman,Right,NA,5,TRUE,TRUE,TRUE,TRUE
17,6,1,3.4670186,['n'],1,right,['e'],1,0.5757676,0.1,1,0,AccAcc,2,19,Woman,Right,NA,5,TRUE,TRUE,TRUE,TRUE
18,6,1,4.8488706,['c'],1,left,['u'],0,3.3392214,0.1,0,0,AccAcc,2,19,Woman,Right,NA,5,TRUE,TRUE,TRUE,TRUE
19,6,1,3.8507654,['n'],1,right,['e'],1,3.4853308,0.1,1,0,AccAcc,2,19,Woman,Right,NA,5,TRUE,TRUE,TRUE,TRUE
21,6,1,2.0005904,['n'],1,right,['u'],0,3.182484,0.2,0,0,AccAcc,2,19,Woman,Right,NA,5,TRUE,TRUE,TRUE,TRUE
22,6,1,3.00111,['n'],0,left,['e'],1,2.5219082,0.1,0,0,AccAcc,2,19,Woman,Right,NA,5,TRUE,TRUE,TRUE,TRUE
23,6,1,3.1353763,['n'],1,right,['e'],1,2.394529,0.2,1,0,AccAcc,2,19,Woman,Right,NA,5,TRUE,TRUE,TRUE,TRUE
24,6,1,3.0352295,['c'],1,left,['u'],0,1.876537,0.2,0,0,AccAcc,2,19,Woman,Right,NA,5,TRUE,TRUE,TRUE,TRUE
25,6,1,1.6177268,['n'],1,right,['e'],1,2.2675174,0.4,1,0,AccAcc,2,19,Woman,Right,NA,5,TRUE,TRUE,TRUE,TRUE
26,6,1,2.9841206,['n'],1,right,['u'],0,1.8844375,0.2,0,0,AccAcc,2,19,Woman,Right,NA,5,TRUE,TRUE,TRUE,TRUE
27,6,1,1.4344829,['n'],1,right,['e'],1,2.5378297,0.4,1,0,AccAcc,2,19,Woman,Right,NA,5,TRUE,TRUE,TRUE,TRUE
28,6,1,4.5170365,['n'],0,left,['u'],0,2.4025747,0.2,1,0,AccAcc,2,19,Woman,Right,NA,5,TRUE,TRUE,TRUE,TRUE
29,6,1,3.3012129,['n'],1,right,['e'],1,1.6012921,0.2,1,0,AccAcc,2,19,Woman,Right,NA,5,TRUE,TRUE,TRUE,TRUE
30,6,1,4.2507219,['c'],1,left,['u'],0,2.9059334,0.4,0,0,AccAcc,2,19,Woman,Right,NA,5,TRUE,TRUE,TRUE,TRUE
31,6,1,4.9175764,['n'],0,left,['u'],0,1.3816077,0.1,1,0,AccAcc,2,19,Woman,Right,NA,5,TRUE,TRUE,TRUE,TRUE
32,6,1,3.1659996,['n'],1,right,['e'],1,2.4660018,0.2,1,0,AccAcc,2,19,Woman,Right,NA,5,TRUE,TRUE,TRUE,TRUE
33,6,1,3.4504045,['c'],1,left,['e'],1,2.5519479,0.2,1,0,AccAcc,2,19,Woman,Right,NA,5,TRUE,TRUE,TRUE,TRUE
34,6,1,3.3686835,['n'],1,right,['u'],0,2.3650375,0.2,0,0,AccAcc,2,19,Woman,Right,NA,5,TRUE,TRUE,TRUE,TRUE
36,6,1,1.3505433,['n'],1,right,['e'],1,1.8291125,0.4,1,0,AccAcc,2,19,Woman,Right,NA,5,TRUE,TRUE,TRUE,TRUE
37,6,1,3.7010001,['c'],1,left,['u'],0,1.6264392,0.2,0,0,AccAcc,2,19,Woman,Right,NA,5,TRUE,TRUE,TRUE,TRUE
38,6,1,2.3680214,['c'],1,left,['e'],1,1.6614827,0.4,1,0,AccAcc,2,19,Woman,Right,NA,5,TRUE,TRUE,TRUE,TRUE
39,6,1,1.9162951,['n'],1,right,['e'],1,2.3060156,0.4,1,0,AccAcc,2,19,Woman,Right,NA,5,TRUE,TRUE,TRUE,TRUE
40,6,1,2.0488683,['n'],1,right,['e'],1,1.9105542,0.4,1,0,AccAcc,2,19,Woman,Right,NA,5,TRUE,TRUE,TRUE,TRUE
41,6,1,2.7004981,['n'],1,right,['e'],1,1.9036345,0.4,1,0,AccAcc,2,19,Woman,Right,NA,5,TRUE,TRUE,TRUE,TRUE
42,6,1,3.2183673,['c'],1,left,['u'],0,2.0535764,0.1,0,0,AccAcc,2,19,Woman,Right,NA,5,TRUE,TRUE,TRUE,TRUE
43,6,1,3.3657812,['n'],1,right,['u'],0,1.6321983,0.4,0,0,AccAcc,2,19,Woman,Right,NA,5,TRUE,TRUE,TRUE,TRUE
44,6,1,2.8842038,['c'],0,right,['e'],1,1.5176802,0.4,0,0,AccAcc,2,19,Woman,Right,NA,5,TRUE,TRUE,TRUE,TRUE
45,6,1,2.8524527,['c'],1,left,['u'],0,1.3611654,0.2,0,0,AccAcc,2,19,Woman,Right,NA,5,TRUE,TRUE,TRUE,TRUE
46,6,1,4.2005772,['n'],0,left,['u'],0,1.0138552,0.2,1,0,AccAcc,2,19,Woman,Right,NA,5,TRUE,TRUE,TRUE,TRUE
47,6,1,3.2167665,['n'],1,right,['u'],0,0.6554368,0.2,0,0,AccAcc,2,19,Woman,Right,NA,5,TRUE,TRUE,TRUE,TRUE
48,6,1,3.1348557,['c'],0,right,['u'],0,1.7861311,0.4,1,0,AccAcc,2,19,Woman,Right,NA,5,TRUE,TRUE,TRUE,TRUE
49,6,1,2.632981,['c'],1,left,['u'],0,1.4046173,0.4,0,0,AccAcc,2,19,Woman,Right,NA,5,TRUE,TRUE,TRUE,TRUE
50,6,1,2.4672172,['n'],0,left,['u'],0,1.9400762,0.4,1,0,AccAcc,2,19,Woman,Right,NA,5,TRUE,TRUE,TRUE,TRUE
51,6,1,4.6503761,['c'],1,left,['u'],0,1.1191638,0.1,0,0,AccAcc,2,19,Woman,Right,NA,5,TRUE,TRUE,TRUE,TRUE
52,6,1,4.1831559,['n'],0,left,['u'],0,1.0379684,0.2,1,0,AccAcc,2,19,Woman,Right,NA,5,TRUE,TRUE,TRUE,TRUE
53,6,1,1.8668081,['c'],1,left,['u'],0,1.6774238,0.1,0,0,AccAcc,2,19,Woman,Right,NA,5,TRUE,TRUE,TRUE,TRUE
54,6,1,2.4676334,['c'],1,left,['u'],0,1.0653628,0.2,0,0,AccAcc,2,19,Woman,Right,NA,5,TRUE,TRUE,TRUE,TRUE
55,6,1,4.1013433,['n'],0,left,['u'],0,2.4139519,0.1,1,0,AccAcc,2,19,Woman,Right,NA,5,TRUE,TRUE,TRUE,TRUE
56,6,1,2.8179446,['n'],1,right,['e'],1,1.6625887,0.4,1,0,AccAcc,2,19,Woman,Right,NA,5,TRUE,TRUE,TRUE,TRUE
57,6,1,3.483157,['n'],0,left,['u'],0,1.1558377,0.4,1,0,AccAcc,2,19,Woman,Right,NA,5,TRUE,TRUE,TRUE,TRUE
58,6,1,2.9999112,['n'],1,right,['u'],0,0.6876145,0.2,0,0,AccAcc,2,19,Woman,Right,NA,5,TRUE,TRUE,TRUE,TRUE
59,6,1,3.3003006,['n'],0,left,['u'],0,1.2827605,0.1,1,0,AccAcc,2,19,Woman,Right,NA,5,TRUE,TRUE,TRUE,TRUE
0,7,1,1.101003,['n'],0,left,['u'],0,3.8397897,0.4,1,0,FastAcc,2,19,Woman,Right,NA,5,TRUE,TRUE,TRUE,TRUE
1,7,1,1.0335154,['n'],1,right,['e'],1,4.1269518,0.4,1,0,FastAcc,2,19,Woman,Right,NA,5,TRUE,TRUE,TRUE,TRUE
2,7,1,1.8014834,['n'],1,right,['u'],0,3.3169282,0.2,0,0,FastAcc,2,19,Woman,Right,NA,5,TRUE,TRUE,TRUE,TRUE
3,7,1,1.2671461,['c'],1,left,['e'],1,1.5849413,0.2,1,0,FastAcc,2,19,Woman,Right,NA,5,TRUE,TRUE,TRUE,TRUE
4,7,1,1.2511392,['n'],1,right,['e'],1,3.0094012,0.2,1,0,FastAcc,2,19,Woman,Right,NA,5,TRUE,TRUE,TRUE,TRUE
5,7,1,3.1843562,['n'],0,left,['u'],0,3.2608254,0.2,1,0,FastAcc,2,19,Woman,Right,NA,5,TRUE,TRUE,TRUE,TRUE
6,7,1,1.1014498,['n'],1,right,['e'],1,2.9289352,0.1,1,0,FastAcc,2,19,Woman,Right,NA,5,TRUE,TRUE,TRUE,TRUE
7,7,1,1.233681,['c'],1,left,['e'],1,1.5016077,0.4,1,0,FastAcc,2,19,Woman,Right,NA,5,TRUE,TRUE,TRUE,TRUE
8,7,1,2.1506942,['c'],1,left,['e'],1,2.4465117,0.4,1,0,FastAcc,2,19,Woman,Right,NA,5,TRUE,TRUE,TRUE,TRUE
9,7,1,1.2678059,['n'],1,right,['u'],0,2.2684596,0.2,0,0,FastAcc,2,19,Woman,Right,NA,5,TRUE,TRUE,TRUE,TRUE
10,7,1,1.4678038,['c'],1,left,['e'],1,2.0402674,0.4,1,0,FastAcc,2,19,Woman,Right,NA,5,TRUE,TRUE,TRUE,TRUE
11,7,1,3.2677159,['c'],1,left,['u'],0,3.8316156,0.2,0,0,FastAcc,2,19,Woman,Right,NA,5,TRUE,TRUE,TRUE,TRUE
12,7,1,1.0684112,['n'],1,right,['e'],1,2.5507743,0.4,1,0,FastAcc,2,19,Woman,Right,NA,5,TRUE,TRUE,TRUE,TRUE
13,7,1,0.9677686,['n'],1,right,['e'],1,2.8112985,0.4,1,0,FastAcc,2,19,Woman,Right,NA,5,TRUE,TRUE,TRUE,TRUE
14,7,1,1.067595,['c'],1,left,['e'],1,2.6582635,0.1,1,0,FastAcc,2,19,Woman,Right,NA,5,TRUE,TRUE,TRUE,TRUE
15,7,1,1.6849832,['c'],1,left,['u'],0,2.4717002,0.2,0,0,FastAcc,2,19,Woman,Right,NA,5,TRUE,TRUE,TRUE,TRUE
16,7,1,2.2002213,['c'],0,right,['u'],0,2.8314734,0.2,1,0,FastAcc,2,19,Woman,Right,NA,5,TRUE,TRUE,TRUE,TRUE
17,7,1,1.2849479,['c'],1,left,['u'],0,2.1892369,0.1,0,0,FastAcc,2,19,Woman,Right,NA,5,TRUE,TRUE,TRUE,TRUE
18,7,1,1.7677931,['c'],1,left,['u'],0,2.7377017,0.1,0,0,FastAcc,2,19,Woman,Right,NA,5,TRUE,TRUE,TRUE,TRUE
19,7,1,1.5012164,['n'],0,left,['u'],0,1.8829625,0.1,1,0,FastAcc,2,19,Woman,Right,NA,5,TRUE,TRUE,TRUE,TRUE
20,7,1,1.117937,['c'],1,left,['e'],1,2.0052576,0.4,1,0,FastAcc,2,19,Woman,Right,NA,5,TRUE,TRUE,TRUE,TRUE
21,7,1,1.9001884,['n'],1,right,['u'],0,2.3491426,0.1,0,0,FastAcc,2,19,Woman,Right,NA,5,TRUE,TRUE,TRUE,TRUE
22,7,1,0.9163065,['c'],1,left,['e'],1,3.004375,0.1,1,0,FastAcc,2,19,Woman,Right,NA,5,TRUE,TRUE,TRUE,TRUE
23,7,1,1.7997165,['n'],0,left,['u'],0,2.269975,0.2,1,0,FastAcc,2,19,Woman,Right,NA,5,TRUE,TRUE,TRUE,TRUE
24,7,1,1.2684888,['n'],1,right,['e'],1,1.6832691,0.4,1,0,FastAcc,2,19,Woman,Right,NA,5,TRUE,TRUE,TRUE,TRUE
25,7,1,0.9678948,['n'],1,right,['e'],1,2.3636876,0.4,1,0,FastAcc,2,19,Woman,Right,NA,5,TRUE,TRUE,TRUE,TRUE
26,7,1,1.5513861,['n'],1,right,['e'],1,1.4892904,0.2,1,0,FastAcc,2,19,Woman,Right,NA,5,TRUE,TRUE,TRUE,TRUE
27,7,1,0.8660702,['n'],1,right,['e'],1,3.0142582,0.4,1,0,FastAcc,2,19,Woman,Right,NA,5,TRUE,TRUE,TRUE,TRUE
28,7,1,1.0003679,['n'],1,right,['u'],0,2.2959569,0.1,0,0,FastAcc,2,19,Woman,Right,NA,5,TRUE,TRUE,TRUE,TRUE
29,7,1,1.1333258,['n'],0,left,['e'],1,2.3371505,0.1,0,0,FastAcc,2,19,Woman,Right,NA,5,TRUE,TRUE,TRUE,TRUE
30,7,1,1.0515587,['n'],1,right,['u'],0,2.2838862,0.2,0,0,FastAcc,2,19,Woman,Right,NA,5,TRUE,TRUE,TRUE,TRUE
31,7,1,1.1014695,['c'],1,left,['e'],1,4.0867184,0.2,1,0,FastAcc,2,19,Woman,Right,NA,5,TRUE,TRUE,TRUE,TRUE
32,7,1,1.1661669,['n'],1,right,['u'],0,2.0402233,0.1,0,0,FastAcc,2,19,Woman,Right,NA,5,TRUE,TRUE,TRUE,TRUE
33,7,1,1.1008402,['c'],0,right,['u'],0,2.4925613,0.1,1,0,FastAcc,2,19,Woman,Right,NA,5,TRUE,TRUE,TRUE,TRUE
34,7,1,1.1345499,['c'],1,left,['e'],1,2.2061911,0.2,1,0,FastAcc,2,19,Woman,Right,NA,5,TRUE,TRUE,TRUE,TRUE
35,7,1,0.8343365,['c'],1,left,['e'],1,3.5597237,0.4,1,0,FastAcc,2,19,Woman,Right,NA,5,TRUE,TRUE,TRUE,TRUE
36,7,1,1.9345285,['c'],0,right,['u'],0,2.5920771,0.1,1,0,FastAcc,2,19,Woman,Right,NA,5,TRUE,TRUE,TRUE,TRUE
37,7,1,1.0834827,['c'],1,left,['e'],1,4.0631661,0.2,1,0,FastAcc,2,19,Woman,Right,NA,5,TRUE,TRUE,TRUE,TRUE
38,7,1,1.3511085,['c'],1,left,['e'],1,1.4644079,0.1,1,0,FastAcc,2,19,Woman,Right,NA,5,TRUE,TRUE,TRUE,TRUE
39,7,1,1.5513132,['n'],1,right,['u'],0,1.8262219,0.4,0,0,FastAcc,2,19,Woman,Right,NA,5,TRUE,TRUE,TRUE,TRUE
40,7,1,1.0179499,['c'],0,right,['e'],1,2.4029582,0.2,0,0,FastAcc,2,19,Woman,Right,NA,5,TRUE,TRUE,TRUE,TRUE
41,7,1,0.8846892,['c'],1,left,['e'],1,2.6750973,0.4,1,0,FastAcc,2,19,Woman,Right,NA,5,TRUE,TRUE,TRUE,TRUE
42,7,1,0.9183496,['c'],0,right,['u'],0,2.485407,0.1,1,0,FastAcc,2,19,Woman,Right,NA,5,TRUE,TRUE,TRUE,TRUE
43,7,1,1.6844908,['n'],1,right,['u'],0,2.0012145,0.4,0,0,FastAcc,2,19,Woman,Right,NA,5,TRUE,TRUE,TRUE,TRUE
44,7,1,1.6005731,['c'],1,left,['u'],0,3.0595187,0.1,0,0,FastAcc,2,19,Woman,Right,NA,5,TRUE,TRUE,TRUE,TRUE
45,7,1,1.8179788,['n'],1,right,['e'],1,1.587466,0.4,1,0,FastAcc,2,19,Woman,Right,NA,5,TRUE,TRUE,TRUE,TRUE
46,7,1,1.267956,['n'],1,right,['u'],0,2.0998463,0.4,0,0,FastAcc,2,19,Woman,Right,NA,5,TRUE,TRUE,TRUE,TRUE
