withinblocktrial,block,block_repetition,rt,resp,acc,cresp,conf_press,cj,rtconf,coherence,slow_trial,manipulation,sub_id,age,gender,handedness,X,batch,check1,check2,check3,check4
0,4,1,1.2001415,['n'],1,right,['0'],6,0.617424,0.4,0,FastFast,1,18,Woman,Right,NA,1,TRUE,TRUE,TRUE,TRUE
1,4,1,1.1660117,['c'],0,right,['9'],5,0.5841204,0.1,0,FastFast,1,18,Woman,Right,NA,1,TRUE,TRUE,TRUE,TRUE
2,4,1,1.1667766,['c'],1,left,['0'],6,0.2837793,0.1,0,FastFast,1,18,Woman,Right,NA,1,TRUE,TRUE,TRUE,TRUE
3,4,1,1.5840341,['n'],0,left,['0'],6,0.3336552,0.1,0,FastFast,1,18,Woman,Right,NA,1,TRUE,TRUE,TRUE,TRUE
4,4,1,1.0001315,['n'],1,right,['0'],6,0.4338656,0.2,0,FastFast,1,18,Woman,Right,NA,1,TRUE,TRUE,TRUE,TRUE
5,4,1,0.9509218,['c'],1,left,['0'],6,0.3004324,0.1,0,FastFast,1,18,Woman,Right,NA,1,TRUE,TRUE,TRUE,TRUE
6,4,1,0.7508045,['c'],1,left,['0'],6,0.2500369,0.4,0,FastFast,1,18,Woman,Right,NA,1,TRUE,TRUE,TRUE,TRUE
7,4,1,1.2163282,['n'],1,right,['9'],5,0.6338413,0.1,0,FastFast,1,18,Woman,Right,NA,1,TRUE,TRUE,TRUE,TRUE
8,4,1,0.9502103,['n'],1,right,['0'],6,0.2839464,0.2,0,FastFast,1,18,Woman,Right,NA,1,TRUE,TRUE,TRUE,TRUE
9,4,1,0.8670566,['c'],0,right,['0'],6,0.267735,0.1,0,FastFast,1,18,Woman,Right,NA,1,TRUE,TRUE,TRUE,TRUE
10,4,1,0.6502349,['c'],1,left,['0'],6,0.2837299,0.4,0,FastFast,1,18,Woman,Right,NA,1,TRUE,TRUE,TRUE,TRUE
11,4,1,1.249383,['n'],1,right,['9'],5,0.4003137,0.1,0,FastFast,1,18,Woman,Right,NA,1,TRUE,TRUE,TRUE,TRUE
12,4,1,1.1669613,['n'],1,right,['0'],6,0.5335781,0.4,0,FastFast,1,18,Woman,Right,NA,1,TRUE,TRUE,TRUE,TRUE
13,4,1,1.1836844,['c'],0,right,['9'],5,0.5671374,0.1,0,FastFast,1,18,Woman,Right,NA,1,TRUE,TRUE,TRUE,TRUE
14,4,1,0.8671192,['c'],1,left,['0'],6,0.2170477,0.2,0,FastFast,1,18,Woman,Right,NA,1,TRUE,TRUE,TRUE,TRUE
15,4,1,0.7177533,['c'],1,left,['0'],6,0.2006348,0.2,0,FastFast,1,18,Woman,Right,NA,1,TRUE,TRUE,TRUE,TRUE
16,4,1,0.7166908,['c'],1,left,['0'],6,0.3170424,0.1,0,FastFast,1,18,Woman,Right,NA,1,TRUE,TRUE,TRUE,TRUE
17,4,1,1.0835322,['n'],1,right,['0'],6,0.2669885,0.2,0,FastFast,1,18,Woman,Right,NA,1,TRUE,TRUE,TRUE,TRUE
18,4,1,0.866558,['c'],1,left,['0'],6,0.2172928,0.2,0,FastFast,1,18,Woman,Right,NA,1,TRUE,TRUE,TRUE,TRUE
19,4,1,1.0671583,['n'],1,right,['0'],6,0.3170891,0.2,0,FastFast,1,18,Woman,Right,NA,1,TRUE,TRUE,TRUE,TRUE
20,4,1,0.9669652,['c'],1,left,['0'],6,0.1837837,0.1,0,FastFast,1,18,Woman,Right,NA,1,TRUE,TRUE,TRUE,TRUE
21,4,1,1.5672445,['n'],1,right,['1'],1,0.8168927,0.1,0,FastFast,1,18,Woman,Right,NA,1,TRUE,TRUE,TRUE,TRUE
22,4,1,1.0000882,['c'],0,right,['0'],6,0.2670874,0.1,0,FastFast,1,18,Woman,Right,NA,1,TRUE,TRUE,TRUE,TRUE
23,4,1,0.7672134,['c'],1,left,['0'],6,0.2503844,0.1,0,FastFast,1,18,Woman,Right,NA,1,TRUE,TRUE,TRUE,TRUE
24,4,1,0.4330969,['n'],1,right,['0'],6,0.233918,0.4,0,FastFast,1,18,Woman,Right,NA,1,TRUE,TRUE,TRUE,TRUE
25,4,1,0.6668328,['c'],1,left,['0'],6,0.1671258,0.4,0,FastFast,1,18,Woman,Right,NA,1,TRUE,TRUE,TRUE,TRUE
26,4,1,0.5164486,['c'],1,left,['0'],6,0.183804,0.2,0,FastFast,1,18,Woman,Right,NA,1,TRUE,TRUE,TRUE,TRUE
27,4,1,0.6339052,['c'],1,left,['0'],6,0.1671989,0.2,0,FastFast,1,18,Woman,Right,NA,1,TRUE,TRUE,TRUE,TRUE
28,4,1,0.7669132,['c'],1,left,['0'],6,0.1341174,0.2,0,FastFast,1,18,Woman,Right,NA,1,TRUE,TRUE,TRUE,TRUE
29,4,1,0.9502257,['n'],1,right,['0'],6,0.2172269,0.2,0,FastFast,1,18,Woman,Right,NA,1,TRUE,TRUE,TRUE,TRUE
30,4,1,2.2837837,['c'],0,right,['2'],2,0.4836352,0.1,0,FastFast,1,18,Woman,Right,NA,1,TRUE,TRUE,TRUE,TRUE
31,4,1,0.7333983,['c'],1,left,['0'],6,0.5005328,0.2,0,FastFast,1,18,Woman,Right,NA,1,TRUE,TRUE,TRUE,TRUE
32,4,1,0.8666141,['c'],1,left,['0'],6,0.2170157,0.4,0,FastFast,1,18,Woman,Right,NA,1,TRUE,TRUE,TRUE,TRUE
33,4,1,0.9157401,['n'],1,right,['0'],6,0.2837427,0.4,0,FastFast,1,18,Woman,Right,NA,1,TRUE,TRUE,TRUE,TRUE
34,4,1,0.5491132,['c'],1,left,['0'],6,0.2506922,0.1,0,FastFast,1,18,Woman,Right,NA,1,TRUE,TRUE,TRUE,TRUE
35,4,1,0.8666255,['n'],1,right,['0'],6,0.2838701,0.4,0,FastFast,1,18,Woman,Right,NA,1,TRUE,TRUE,TRUE,TRUE
36,4,1,0.6665982,['c'],1,left,['0'],6,0.2004675,0.2,0,FastFast,1,18,Woman,Right,NA,1,TRUE,TRUE,TRUE,TRUE
37,4,1,0.633381,['c'],1,left,['0'],6,0.2504441,0.2,0,FastFast,1,18,Woman,Right,NA,1,TRUE,TRUE,TRUE,TRUE
38,4,1,0.5839354,['c'],1,left,['0'],6,0.2003027,0.4,0,FastFast,1,18,Woman,Right,NA,1,TRUE,TRUE,TRUE,TRUE
39,4,1,0.6172692,['c'],1,left,['0'],6,0.2009755,0.2,0,FastFast,1,18,Woman,Right,NA,1,TRUE,TRUE,TRUE,TRUE
40,4,1,0.833388,['n'],1,right,['0'],6,0.233935,0.2,0,FastFast,1,18,Woman,Right,NA,1,TRUE,TRUE,TRUE,TRUE
41,4,1,1.2840646,['n'],1,right,['0'],6,0.216886,0.4,0,FastFast,1,18,Woman,Right,NA,1,TRUE,TRUE,TRUE,TRUE
42,4,1,1.36635,['c'],0,right,['2'],2,0.95058,0.4,0,FastFast,1,18,Woman,Right,NA,1,TRUE,TRUE,TRUE,TRUE
43,4,1,1.2159931,['n'],1,right,['2'],2,0.5839719,0.1,0,FastFast,1,18,Woman,Right,NA,1,TRUE,TRUE,TRUE,TRUE
44,4,1,1.6343896,['n'],1,right,['3'],3,0.9504067,0.2,0,FastFast,1,18,Woman,Right,NA,1,TRUE,TRUE,TRUE,TRUE
45,4,1,0.7833787,['n'],1,right,['0'],6,0.3172458,0.4,0,FastFast,1,18,Woman,Right,NA,1,TRUE,TRUE,TRUE,TRUE
46,4,1,0.5829002,['c'],1,left,['0'],6,0.2336171,0.1,0,FastFast,1,18,Woman,Right,NA,1,TRUE,TRUE,TRUE,TRUE
47,4,1,0.7675706,['c'],1,left,['0'],6,0.2169999,0.2,0,FastFast,1,18,Woman,Right,NA,1,TRUE,TRUE,TRUE,TRUE
48,4,1,0.5341762,['c'],1,left,['0'],6,0.2171793,0.4,0,FastFast,1,18,Woman,Right,NA,1,TRUE,TRUE,TRUE,TRUE
49,4,1,0.8169351,['c'],1,left,['0'],6,0.3338751,0.4,0,FastFast,1,18,Woman,Right,NA,1,TRUE,TRUE,TRUE,TRUE
50,4,1,0.8171232,['n'],1,right,['0'],6,0.2003632,0.4,0,FastFast,1,18,Woman,Right,NA,1,TRUE,TRUE,TRUE,TRUE
51,4,1,0.6510556,['c'],0,right,['0'],6,0.1672768,0.1,0,FastFast,1,18,Woman,Right,NA,1,TRUE,TRUE,TRUE,TRUE
52,4,1,0.6846074,['n'],1,right,['0'],6,0.2003623,0.4,0,FastFast,1,18,Woman,Right,NA,1,TRUE,TRUE,TRUE,TRUE
53,4,1,0.5670154,['c'],0,right,['0'],6,0.2006071,0.2,0,FastFast,1,18,Woman,Right,NA,1,TRUE,TRUE,TRUE,TRUE
54,4,1,0.5002539,['c'],1,left,['0'],6,0.2004239,0.4,0,FastFast,1,18,Woman,Right,NA,1,TRUE,TRUE,TRUE,TRUE
55,4,1,0.6002849,['c'],1,left,['0'],6,0.1504116,0.4,0,FastFast,1,18,Woman,Right,NA,1,TRUE,TRUE,TRUE,TRUE
56,4,1,0.8505981,['n'],1,right,['0'],6,0.2172629,0.2,0,FastFast,1,18,Woman,Right,NA,1,TRUE,TRUE,TRUE,TRUE
57,4,1,0.6344412,['c'],1,left,['0'],6,0.2005403,0.1,0,FastFast,1,18,Woman,Right,NA,1,TRUE,TRUE,TRUE,TRUE
58,4,1,0.5168395,['c'],0,right,['0'],6,0.150728,0.1,0,FastFast,1,18,Woman,Right,NA,1,TRUE,TRUE,TRUE,TRUE
59,4,1,0.4494634,['c'],1,left,['0'],6,0.1506301,0.4,0,FastFast,1,18,Woman,Right,NA,1,TRUE,TRUE,TRUE,TRUE
0,5,1,2.5675476,['c'],1,left,['0'],6,0.2503548,0.1,0,AccFast,1,18,Woman,Right,NA,1,TRUE,TRUE,TRUE,TRUE
1,5,1,1.7001548,['c'],1,left,['0'],6,0.1005414,0.4,0,AccFast,1,18,Woman,Right,NA,1,TRUE,TRUE,TRUE,TRUE
2,5,1,1.800038,['c'],1,left,['9'],5,0.5672668,0.1,0,AccFast,1,18,Woman,Right,NA,1,TRUE,TRUE,TRUE,TRUE
3,5,1,2.717451,['n'],1,right,['8'],4,0.6173764,0.2,0,AccFast,1,18,Woman,Right,NA,1,TRUE,TRUE,TRUE,TRUE
4,5,1,1.7168619,['c'],0,right,['3'],3,0.9838839,0.1,0,AccFast,1,18,Woman,Right,NA,1,TRUE,TRUE,TRUE,TRUE
5,5,1,1.4011121,['n'],1,right,['8'],4,0.5669259,0.1,0,AccFast,1,18,Woman,Right,NA,1,TRUE,TRUE,TRUE,TRUE
6,5,1,1.0498281,['c'],1,left,['0'],6,0.1838502,0.2,0,AccFast,1,18,Woman,Right,NA,1,TRUE,TRUE,TRUE,TRUE
7,5,1,1.4837795,['c'],1,left,['0'],6,0.2675327,0.4,0,AccFast,1,18,Woman,Right,NA,1,TRUE,TRUE,TRUE,TRUE
8,5,1,4.0002699,['c'],0,right,['1'],1,0.4174312,0.1,0,AccFast,1,18,Woman,Right,NA,1,TRUE,TRUE,TRUE,TRUE
9,5,1,2.616606,['c'],0,right,['3'],3,0.8339089,0.2,0,AccFast,1,18,Woman,Right,NA,1,TRUE,TRUE,TRUE,TRUE
10,5,1,3.1842107,['c'],1,left,['3'],3,0.5838626,0.1,0,AccFast,1,18,Woman,Right,NA,1,TRUE,TRUE,TRUE,TRUE
11,5,1,1.5839411,['n'],1,right,['8'],4,0.484256,0.2,0,AccFast,1,18,Woman,Right,NA,1,TRUE,TRUE,TRUE,TRUE
12,5,1,1.383743,['c'],1,left,['0'],6,0.8339002,0.4,0,AccFast,1,18,Woman,Right,NA,1,TRUE,TRUE,TRUE,TRUE
13,5,1,2.0162837,['n'],1,right,['9'],5,0.2838382,0.2,0,AccFast,1,18,Woman,Right,NA,1,TRUE,TRUE,TRUE,TRUE
14,5,1,1.2336292,['n'],1,right,['0'],6,0.6335851,0.4,0,AccFast,1,18,Woman,Right,NA,1,TRUE,TRUE,TRUE,TRUE
15,5,1,1.1008125,['c'],1,left,['0'],6,0.2838352,0.4,0,AccFast,1,18,Woman,Right,NA,1,TRUE,TRUE,TRUE,TRUE
16,5,1,4.1827182,['n'],0,left,['8'],4,0.4005707,0.1,0,AccFast,1,18,Woman,Right,NA,1,TRUE,TRUE,TRUE,TRUE
17,5,1,1.4337968,['n'],1,right,['0'],6,0.2172153,0.4,0,AccFast,1,18,Woman,Right,NA,1,TRUE,TRUE,TRUE,TRUE
18,5,1,1.4838247,['c'],1,left,['0'],6,0.2170298,0.4,0,AccFast,1,18,Woman,Right,NA,1,TRUE,TRUE,TRUE,TRUE
19,5,1,2.2504912,['c'],1,left,['8'],4,0.6003611,0.2,0,AccFast,1,18,Woman,Right,NA,1,TRUE,TRUE,TRUE,TRUE
20,5,1,2.7832838,['n'],1,right,['1'],1,0.3173185,0.2,0,AccFast,1,18,Woman,Right,NA,1,TRUE,TRUE,TRUE,TRUE
21,5,1,1.4833824,['c'],1,left,['0'],6,0.3671521,0.4,0,AccFast,1,18,Woman,Right,NA,1,TRUE,TRUE,TRUE,TRUE
23,5,1,1.6507502,['n'],1,right,['3'],3,1.567208,0.1,0,AccFast,1,18,Woman,Right,NA,1,TRUE,TRUE,TRUE,TRUE
24,5,1,1.6668278,['n'],1,right,['9'],5,0.6839572,0.4,0,AccFast,1,18,Woman,Right,NA,1,TRUE,TRUE,TRUE,TRUE
25,5,1,1.6170094,['c'],1,left,['0'],6,0.4003095,0.2,0,AccFast,1,18,Woman,Right,NA,1,TRUE,TRUE,TRUE,TRUE
26,5,1,4.2509208,['c'],1,left,['2'],2,0.7339519,0.1,0,AccFast,1,18,Woman,Right,NA,1,TRUE,TRUE,TRUE,TRUE
27,5,1,0.9672047,['n'],1,right,['0'],6,0.3006308,0.4,0,AccFast,1,18,Woman,Right,NA,1,TRUE,TRUE,TRUE,TRUE
28,5,1,0.9001106,['c'],1,left,['0'],6,0.1671549,0.4,0,AccFast,1,18,Woman,Right,NA,1,TRUE,TRUE,TRUE,TRUE
29,5,1,1.1833599,['n'],1,right,['0'],6,0.1673461,0.2,0,AccFast,1,18,Woman,Right,NA,1,TRUE,TRUE,TRUE,TRUE
30,5,1,2.3660489,['n'],1,right,['8'],4,0.6504883,0.2,0,AccFast,1,18,Woman,Right,NA,1,TRUE,TRUE,TRUE,TRUE
31,5,1,2.5835069,['c'],1,left,['2'],2,0.6007102,0.1,0,AccFast,1,18,Woman,Right,NA,1,TRUE,TRUE,TRUE,TRUE
32,5,1,0.749977,['n'],1,right,['0'],6,0.2342827,0.4,0,AccFast,1,18,Woman,Right,NA,1,TRUE,TRUE,TRUE,TRUE
33,5,1,2.4665651,['c'],0,right,['8'],4,1.1504225,0.2,0,AccFast,1,18,Woman,Right,NA,1,TRUE,TRUE,TRUE,TRUE
34,5,1,0.749311,['n'],1,right,['0'],6,0.3672103,0.4,0,AccFast,1,18,Woman,Right,NA,1,TRUE,TRUE,TRUE,TRUE
35,5,1,0.9171771,['c'],1,left,['0'],6,0.5507221,0.2,0,AccFast,1,18,Woman,Right,NA,1,TRUE,TRUE,TRUE,TRUE
36,5,1,2.0827383,['n'],0,left,['8'],4,1.3505342,0.1,0,AccFast,1,18,Woman,Right,NA,1,TRUE,TRUE,TRUE,TRUE
37,5,1,1.0159899,['n'],1,right,['0'],6,0.1837961,0.2,0,AccFast,1,18,Woman,Right,NA,1,TRUE,TRUE,TRUE,TRUE
38,5,1,0.7666891,['n'],1,right,['0'],6,0.2171952,0.4,0,AccFast,1,18,Woman,Right,NA,1,TRUE,TRUE,TRUE,TRUE
39,5,1,0.8501677,['c'],1,left,['0'],6,0.1507277,0.2,0,AccFast,1,18,Woman,Right,NA,1,TRUE,TRUE,TRUE,TRUE
40,5,1,1.2661535,['c'],1,left,['0'],6,0.167144,0.2,0,AccFast,1,18,Woman,Right,NA,1,TRUE,TRUE,TRUE,TRUE
41,5,1,1.2337466,['c'],1,left,['3'],3,2.167107,0.1,0,AccFast,1,18,Woman,Right,NA,1,TRUE,TRUE,TRUE,TRUE
42,5,1,0.8011139,['c'],1,left,['0'],6,0.1336461,0.4,0,AccFast,1,18,Woman,Right,NA,1,TRUE,TRUE,TRUE,TRUE
43,5,1,1.3002066,['c'],0,right,['0'],6,0.2004515,0.1,0,AccFast,1,18,Woman,Right,NA,1,TRUE,TRUE,TRUE,TRUE
44,5,1,0.8011945,['c'],1,left,['0'],6,0.1672492,0.2,0,AccFast,1,18,Woman,Right,NA,1,TRUE,TRUE,TRUE,TRUE
45,5,1,0.9002862,['n'],1,right,['0'],6,0.2006049,0.4,0,AccFast,1,18,Woman,Right,NA,1,TRUE,TRUE,TRUE,TRUE
46,5,1,0.5834344,['c'],1,left,['0'],6,0.2002018,0.1,0,AccFast,1,18,Woman,Right,NA,1,TRUE,TRUE,TRUE,TRUE
47,5,1,0.9666615,['n'],1,right,['0'],6,0.2001895,0.2,0,AccFast,1,18,Woman,Right,NA,1,TRUE,TRUE,TRUE,TRUE
48,5,1,0.4658959,['c'],1,left,['0'],6,0.2174889,0.4,0,AccFast,1,18,Woman,Right,NA,1,TRUE,TRUE,TRUE,TRUE
49,5,1,0.8169865,['n'],1,right,['0'],6,0.2170387,0.4,0,AccFast,1,18,Woman,Right,NA,1,TRUE,TRUE,TRUE,TRUE
50,5,1,1.2335415,['c'],0,right,['9'],5,0.6170906,0.1,0,AccFast,1,18,Woman,Right,NA,1,TRUE,TRUE,TRUE,TRUE
51,5,1,0.6331423,['c'],1,left,['0'],6,0.217183,0.4,0,AccFast,1,18,Woman,Right,NA,1,TRUE,TRUE,TRUE,TRUE
52,5,1,0.7166304,['c'],1,left,['0'],6,0.1672427,0.2,0,AccFast,1,18,Woman,Right,NA,1,TRUE,TRUE,TRUE,TRUE
53,5,1,1.6507463,['c'],1,left,['8'],4,0.9840722,0.1,0,AccFast,1,18,Woman,Right,NA,1,TRUE,TRUE,TRUE,TRUE
54,5,1,1.7836734,['c'],0,right,['3'],3,0.4505013,0.1,0,AccFast,1,18,Woman,Right,NA,1,TRUE,TRUE,TRUE,TRUE
55,5,1,1.1497702,['c'],1,left,['0'],6,0.3505741,0.4,0,AccFast,1,18,Woman,Right,NA,1,TRUE,TRUE,TRUE,TRUE
56,5,1,0.833497,['c'],0,right,['0'],6,0.1838152,0.1,0,AccFast,1,18,Woman,Right,NA,1,TRUE,TRUE,TRUE,TRUE
57,5,1,2.1157066,['n'],1,right,['8'],4,1.1503633,0.2,0,AccFast,1,18,Woman,Right,NA,1,TRUE,TRUE,TRUE,TRUE
58,5,1,2.3335572,['n'],1,right,['3'],3,0.6175058,0.2,0,AccFast,1,18,Woman,Right,NA,1,TRUE,TRUE,TRUE,TRUE
59,5,1,0.9994203,['c'],1,left,['0'],6,0.2005168,0.1,0,AccFast,1,18,Woman,Right,NA,1,TRUE,TRUE,TRUE,TRUE
0,6,1,1.8162316,['c'],1,left,['0'],6,0.3671675,0.2,0,AccAcc,1,18,Woman,Right,NA,1,TRUE,TRUE,TRUE,TRUE
1,6,1,1.5663483,['c'],0,right,['0'],6,0.4338396,0.1,0,AccAcc,1,18,Woman,Right,NA,1,TRUE,TRUE,TRUE,TRUE
2,6,1,2.999453,['n'],1,right,['0'],6,0.4005068,0.4,0,AccAcc,1,18,Woman,Right,NA,1,TRUE,TRUE,TRUE,TRUE
3,6,1,1.533083,['n'],1,right,['9'],5,1.100519,0.2,0,AccAcc,1,18,Woman,Right,NA,1,TRUE,TRUE,TRUE,TRUE
4,6,1,1.0493161,['c'],1,left,['0'],6,0.7338556,0.1,0,AccAcc,1,18,Woman,Right,NA,1,TRUE,TRUE,TRUE,TRUE
5,6,1,1.4329388,['c'],1,left,['0'],6,0.2838954,0.2,0,AccAcc,1,18,Woman,Right,NA,1,TRUE,TRUE,TRUE,TRUE
6,6,1,1.0991441,['n'],1,right,['0'],6,0.3837853,0.4,0,AccAcc,1,18,Woman,Right,NA,1,TRUE,TRUE,TRUE,TRUE
7,6,1,1.3162435,['n'],1,right,['0'],6,0.4506185,0.2,0,AccAcc,1,18,Woman,Right,NA,1,TRUE,TRUE,TRUE,TRUE
8,6,1,0.9323011,['c'],1,left,['0'],6,0.4671595,0.2,0,AccAcc,1,18,Woman,Right,NA,1,TRUE,TRUE,TRUE,TRUE
9,6,1,0.9822133,['n'],1,right,['0'],6,0.3005465,0.4,0,AccAcc,1,18,Woman,Right,NA,1,TRUE,TRUE,TRUE,TRUE
10,6,1,1.1997961,['c'],1,left,['0'],6,0.5171388,0.4,0,AccAcc,1,18,Woman,Right,NA,1,TRUE,TRUE,TRUE,TRUE
11,6,1,1.6334979,['n'],1,right,['0'],6,0.3344176,0.2,0,AccAcc,1,18,Woman,Right,NA,1,TRUE,TRUE,TRUE,TRUE
12,6,1,0.8323857,['n'],1,right,['0'],6,0.3171755,0.4,0,AccAcc,1,18,Woman,Right,NA,1,TRUE,TRUE,TRUE,TRUE
13,6,1,0.9502662,['n'],1,right,['0'],6,0.3672328,0.4,0,AccAcc,1,18,Woman,Right,NA,1,TRUE,TRUE,TRUE,TRUE
14,6,1,1.4332555,['n'],1,right,['0'],6,0.8504904,0.2,0,AccAcc,1,18,Woman,Right,NA,1,TRUE,TRUE,TRUE,TRUE
15,6,1,1.2827583,['c'],1,left,['0'],6,0.2504265,0.4,0,AccAcc,1,18,Woman,Right,NA,1,TRUE,TRUE,TRUE,TRUE
16,6,1,1.1820039,['n'],1,right,['0'],6,0.3505713,0.1,0,AccAcc,1,18,Woman,Right,NA,1,TRUE,TRUE,TRUE,TRUE
17,6,1,0.9995019,['n'],1,right,['0'],6,0.3338352,0.2,0,AccAcc,1,18,Woman,Right,NA,1,TRUE,TRUE,TRUE,TRUE
18,6,1,1.1164496,['n'],1,right,['0'],6,0.4005145,0.1,0,AccAcc,1,18,Woman,Right,NA,1,TRUE,TRUE,TRUE,TRUE
19,6,1,1.4830858,['n'],0,left,['8'],4,1.1338735,0.1,0,AccAcc,1,18,Woman,Right,NA,1,TRUE,TRUE,TRUE,TRUE
20,6,1,1.4663804,['c'],1,left,['0'],6,0.4004938,0.4,0,AccAcc,1,18,Woman,Right,NA,1,TRUE,TRUE,TRUE,TRUE
21,6,1,1.2329328,['n'],1,right,['9'],5,0.4671023,0.1,0,AccAcc,1,18,Woman,Right,NA,1,TRUE,TRUE,TRUE,TRUE
22,6,1,0.7326642,['n'],1,right,['0'],6,0.4504597,0.4,0,AccAcc,1,18,Woman,Right,NA,1,TRUE,TRUE,TRUE,TRUE
23,6,1,1.682247,['c'],1,left,['0'],6,0.2838401,0.1,0,AccAcc,1,18,Woman,Right,NA,1,TRUE,TRUE,TRUE,TRUE
24,6,1,0.9659821,['n'],1,right,['0'],6,0.8839184,0.1,0,AccAcc,1,18,Woman,Right,NA,1,TRUE,TRUE,TRUE,TRUE
25,6,1,1.0995599,['n'],1,right,['9'],5,0.4671167,0.2,0,AccAcc,1,18,Woman,Right,NA,1,TRUE,TRUE,TRUE,TRUE
26,6,1,0.7325221,['c'],1,left,['0'],6,1.6505458,0.4,0,AccAcc,1,18,Woman,Right,NA,1,TRUE,TRUE,TRUE,TRUE
27,6,1,1.1159789,['n'],1,right,['0'],6,0.7671911,0.1,0,AccAcc,1,18,Woman,Right,NA,1,TRUE,TRUE,TRUE,TRUE
28,6,1,3.9831991,['c'],1,left,['3'],3,1.3671846,0.1,0,AccAcc,1,18,Woman,Right,NA,1,TRUE,TRUE,TRUE,TRUE
29,6,1,1.0154313,['n'],1,right,['0'],6,0.7338952,0.2,0,AccAcc,1,18,Woman,Right,NA,1,TRUE,TRUE,TRUE,TRUE
30,6,1,0.6988846,['c'],1,left,['0'],6,0.2337347,0.4,0,AccAcc,1,18,Woman,Right,NA,1,TRUE,TRUE,TRUE,TRUE
31,6,1,2.0150048,['c'],1,left,['3'],3,1.0672226,0.1,0,AccAcc,1,18,Woman,Right,NA,1,TRUE,TRUE,TRUE,TRUE
32,6,1,1.833604,['n'],1,right,['0'],6,0.5838686,0.1,0,AccAcc,1,18,Woman,Right,NA,1,TRUE,TRUE,TRUE,TRUE
33,6,1,2.1500977,['n'],1,right,['3'],3,1.2839053,0.1,0,AccAcc,1,18,Woman,Right,NA,1,TRUE,TRUE,TRUE,TRUE
34,6,1,3.1163128,['c'],0,right,['2'],2,1.0839042,0.1,0,AccAcc,1,18,Woman,Right,NA,1,TRUE,TRUE,TRUE,TRUE
35,6,1,1.1328145,['c'],1,left,['0'],6,0.2338604,0.4,0,AccAcc,1,18,Woman,Right,NA,1,TRUE,TRUE,TRUE,TRUE
36,6,1,2.549544,['n'],1,right,['0'],6,0.7671939,0.4,0,AccAcc,1,18,Woman,Right,NA,1,TRUE,TRUE,TRUE,TRUE
37,6,1,2.5485113,['c'],1,left,['2'],2,0.7172683,0.2,0,AccAcc,1,18,Woman,Right,NA,1,TRUE,TRUE,TRUE,TRUE
38,6,1,1.2997906,['n'],1,right,['0'],6,0.5005195,0.4,0,AccAcc,1,18,Woman,Right,NA,1,TRUE,TRUE,TRUE,TRUE
39,6,1,3.7661053,['c'],0,right,['2'],2,0.7005469,0.2,0,AccAcc,1,18,Woman,Right,NA,1,TRUE,TRUE,TRUE,TRUE
40,6,1,3.0996207,['n'],0,left,['2'],2,0.5838141,0.1,0,AccAcc,1,18,Woman,Right,NA,1,TRUE,TRUE,TRUE,TRUE
41,6,1,3.6329162,['n'],0,left,['1'],1,0.5008018,0.2,0,AccAcc,1,18,Woman,Right,NA,1,TRUE,TRUE,TRUE,TRUE
42,6,1,1.0990959,['n'],1,right,['0'],6,0.2672888,0.4,0,AccAcc,1,18,Woman,Right,NA,1,TRUE,TRUE,TRUE,TRUE
43,6,1,1.1500208,['c'],1,left,['0'],6,0.7504784,0.4,0,AccAcc,1,18,Woman,Right,NA,1,TRUE,TRUE,TRUE,TRUE
44,6,1,2.0827611,['n'],1,right,['3'],3,1.2338954,0.1,0,AccAcc,1,18,Woman,Right,NA,1,TRUE,TRUE,TRUE,TRUE
45,6,1,3.5828674,['c'],1,left,['2'],2,0.700365,0.1,0,AccAcc,1,18,Woman,Right,NA,1,TRUE,TRUE,TRUE,TRUE
46,6,1,3.0505585,['c'],0,right,['2'],2,0.7672071,0.1,0,AccAcc,1,18,Woman,Right,NA,1,TRUE,TRUE,TRUE,TRUE
47,6,1,1.6661728,['c'],1,left,['2'],2,0.6006117,0.2,0,AccAcc,1,18,Woman,Right,NA,1,TRUE,TRUE,TRUE,TRUE
48,6,1,1.098745,['c'],0,right,['1'],1,0.3172138,0.2,0,AccAcc,1,18,Woman,Right,NA,1,TRUE,TRUE,TRUE,TRUE
49,6,1,1.2162982,['c'],1,left,['0'],6,0.2835139,0.2,0,AccAcc,1,18,Woman,Right,NA,1,TRUE,TRUE,TRUE,TRUE
50,6,1,1.6330426,['c'],1,left,['0'],6,0.284123,0.4,0,AccAcc,1,18,Woman,Right,NA,1,TRUE,TRUE,TRUE,TRUE
51,6,1,4.7162724,['c'],0,right,['3'],3,0.7005728,0.1,0,AccAcc,1,18,Woman,Right,NA,1,TRUE,TRUE,TRUE,TRUE
52,6,1,1.2988257,['c'],1,left,['0'],6,0.2338848,0.4,0,AccAcc,1,18,Woman,Right,NA,1,TRUE,TRUE,TRUE,TRUE
53,6,1,2.4661956,['c'],1,left,['0'],6,0.15043,0.4,0,AccAcc,1,18,Woman,Right,NA,1,TRUE,TRUE,TRUE,TRUE
54,6,1,3.0993247,['n'],0,left,['2'],2,0.6342146,0.1,0,AccAcc,1,18,Woman,Right,NA,1,TRUE,TRUE,TRUE,TRUE
55,6,1,1.5500583,['c'],1,left,['8'],4,1.2837112,0.2,0,AccAcc,1,18,Woman,Right,NA,1,TRUE,TRUE,TRUE,TRUE
56,6,1,0.9163974,['c'],1,left,['0'],6,0.2839225,0.4,0,AccAcc,1,18,Woman,Right,NA,1,TRUE,TRUE,TRUE,TRUE
57,6,1,1.3662031,['c'],1,left,['0'],6,0.4171728,0.2,0,AccAcc,1,18,Woman,Right,NA,1,TRUE,TRUE,TRUE,TRUE
58,6,1,1.0825801,['c'],1,left,['0'],6,0.2838302,0.2,0,AccAcc,1,18,Woman,Right,NA,1,TRUE,TRUE,TRUE,TRUE
59,6,1,3.3995436,['c'],1,left,['8'],4,1.0837759,0.2,0,AccAcc,1,18,Woman,Right,NA,1,TRUE,TRUE,TRUE,TRUE
0,7,1,0.8331244,['c'],1,left,['0'],6,2.3005881,0.4,0,FastAcc,1,18,Woman,Right,NA,1,TRUE,TRUE,TRUE,TRUE
1,7,1,0.5999852,['c'],1,left,['0'],6,0.2839773,0.1,0,FastAcc,1,18,Woman,Right,NA,1,TRUE,TRUE,TRUE,TRUE
2,7,1,0.9155513,['n'],1,right,['0'],6,0.400633,0.4,0,FastAcc,1,18,Woman,Right,NA,1,TRUE,TRUE,TRUE,TRUE
3,7,1,2.4834661,['c'],0,right,['2'],2,0.6838446,0.1,0,FastAcc,1,18,Woman,Right,NA,1,TRUE,TRUE,TRUE,TRUE
4,7,1,0.8653575,['n'],1,right,['2'],2,1.2011001,0.1,0,FastAcc,1,18,Woman,Right,NA,1,TRUE,TRUE,TRUE,TRUE
5,7,1,0.9487727,['c'],1,left,['0'],6,0.2507022,0.4,0,FastAcc,1,18,Woman,Right,NA,1,TRUE,TRUE,TRUE,TRUE
6,7,1,0.6820742,['n'],1,right,['8'],4,0.8838272,0.2,0,FastAcc,1,18,Woman,Right,NA,1,TRUE,TRUE,TRUE,TRUE
7,7,1,0.6829755,['c'],1,left,['9'],5,0.8505456,0.4,0,FastAcc,1,18,Woman,Right,NA,1,TRUE,TRUE,TRUE,TRUE
8,7,1,0.6654991,['c'],1,left,['0'],6,1.2004644,0.4,0,FastAcc,1,18,Woman,Right,NA,1,TRUE,TRUE,TRUE,TRUE
9,7,1,0.983348,['n'],1,right,['0'],6,0.3171139,0.1,0,FastAcc,1,18,Woman,Right,NA,1,TRUE,TRUE,TRUE,TRUE
10,7,1,0.5995461,['c'],1,left,['0'],6,0.4841736,0.4,0,FastAcc,1,18,Woman,Right,NA,1,TRUE,TRUE,TRUE,TRUE
11,7,1,1.3817891,['n'],0,left,['8'],4,1.3339004,0.1,0,FastAcc,1,18,Woman,Right,NA,1,TRUE,TRUE,TRUE,TRUE
12,7,1,0.8163345,['n'],1,right,['9'],5,0.8005305,0.2,0,FastAcc,1,18,Woman,Right,NA,1,TRUE,TRUE,TRUE,TRUE
13,7,1,0.8663237,['c'],1,left,['0'],6,0.9505594,0.2,0,FastAcc,1,18,Woman,Right,NA,1,TRUE,TRUE,TRUE,TRUE
14,7,1,0.5502582,['n'],1,right,['0'],6,0.3840034,0.1,0,FastAcc,1,18,Woman,Right,NA,1,TRUE,TRUE,TRUE,TRUE
15,7,1,0.7334548,['n'],1,right,['0'],6,0.8004866,0.4,0,FastAcc,1,18,Woman,Right,NA,1,TRUE,TRUE,TRUE,TRUE
16,7,1,1.6998426,['n'],1,right,['0'],6,0.4004136,0.2,0,FastAcc,1,18,Woman,Right,NA,1,TRUE,TRUE,TRUE,TRUE
17,7,1,0.6495944,['n'],1,right,['0'],6,0.2838517,0.2,0,FastAcc,1,18,Woman,Right,NA,1,TRUE,TRUE,TRUE,TRUE
18,7,1,0.5987461,['n'],1,right,['0'],6,0.3005482,0.2,0,FastAcc,1,18,Woman,Right,NA,1,TRUE,TRUE,TRUE,TRUE
19,7,1,0.7831633,['n'],1,right,['0'],6,0.4506882,0.2,0,FastAcc,1,18,Woman,Right,NA,1,TRUE,TRUE,TRUE,TRUE
20,7,1,0.7171605,['n'],1,right,['0'],6,0.5671234,0.4,0,FastAcc,1,18,Woman,Right,NA,1,TRUE,TRUE,TRUE,TRUE
21,7,1,0.766635,['n'],1,right,['0'],6,0.3505054,0.4,0,FastAcc,1,18,Woman,Right,NA,1,TRUE,TRUE,TRUE,TRUE
22,7,1,0.5997994,['c'],1,left,['0'],6,0.4839196,0.4,0,FastAcc,1,18,Woman,Right,NA,1,TRUE,TRUE,TRUE,TRUE
23,7,1,1.2329787,['n'],1,right,['9'],5,0.7838201,0.1,0,FastAcc,1,18,Woman,Right,NA,1,TRUE,TRUE,TRUE,TRUE
24,7,1,1.9664395,['n'],0,left,['8'],4,0.9505888,0.1,0,FastAcc,1,18,Woman,Right,NA,1,TRUE,TRUE,TRUE,TRUE
25,7,1,2.2005966,['n'],0,left,['3'],3,1.0169956,0.2,0,FastAcc,1,18,Woman,Right,NA,1,TRUE,TRUE,TRUE,TRUE
26,7,1,0.8330139,['n'],1,right,['3'],3,0.7004603,0.2,0,FastAcc,1,18,Woman,Right,NA,1,TRUE,TRUE,TRUE,TRUE
27,7,1,0.8654276,['n'],1,right,['0'],6,0.2339321,0.2,0,FastAcc,1,18,Woman,Right,NA,1,TRUE,TRUE,TRUE,TRUE
28,7,1,1.6326175,['n'],1,right,['0'],6,0.867233,0.1,0,FastAcc,1,18,Woman,Right,NA,1,TRUE,TRUE,TRUE,TRUE
29,7,1,0.9339129,['n'],1,right,['0'],6,0.5504952,0.4,0,FastAcc,1,18,Woman,Right,NA,1,TRUE,TRUE,TRUE,TRUE
30,7,1,1.2999981,['n'],1,right,['0'],6,1.0169555,0.1,0,FastAcc,1,18,Woman,Right,NA,1,TRUE,TRUE,TRUE,TRUE
31,7,1,0.9322509,['n'],0,left,['0'],6,0.7505776,0.1,0,FastAcc,1,18,Woman,Right,NA,1,TRUE,TRUE,TRUE,TRUE
32,7,1,1.5663916,['c'],1,left,['8'],4,1.8503922,0.2,0,FastAcc,1,18,Woman,Right,NA,1,TRUE,TRUE,TRUE,TRUE
33,7,1,1.9490199,['c'],1,left,['8'],4,1.1673845,0.4,0,FastAcc,1,18,Woman,Right,NA,1,TRUE,TRUE,TRUE,TRUE
34,7,1,1.0994073,['n'],1,right,['9'],5,1.3838084,0.1,0,FastAcc,1,18,Woman,Right,NA,1,TRUE,TRUE,TRUE,TRUE
35,7,1,3.2154958,['c'],1,left,['3'],3,2.6838895,0.2,0,FastAcc,1,18,Woman,Right,NA,1,TRUE,TRUE,TRUE,TRUE
36,7,1,1.0653861,['n'],1,right,['0'],6,0.7339181,0.4,0,FastAcc,1,18,Woman,Right,NA,1,TRUE,TRUE,TRUE,TRUE
37,7,1,1.6002024,['c'],1,left,['8'],4,1.0669772,0.1,0,FastAcc,1,18,Woman,Right,NA,1,TRUE,TRUE,TRUE,TRUE
38,7,1,1.5995568,['c'],1,left,['8'],4,2.6005848,0.1,0,FastAcc,1,18,Woman,Right,NA,1,TRUE,TRUE,TRUE,TRUE
39,7,1,0.7496019,['n'],0,left,['9'],5,0.9005664,0.1,0,FastAcc,1,18,Woman,Right,NA,1,TRUE,TRUE,TRUE,TRUE
40,7,1,2.2994241,['n'],1,right,['8'],4,1.5838098,0.1,0,FastAcc,1,18,Woman,Right,NA,1,TRUE,TRUE,TRUE,TRUE
41,7,1,0.5672383,['c'],1,left,['0'],6,0.633869,0.4,0,FastAcc,1,18,Woman,Right,NA,1,TRUE,TRUE,TRUE,TRUE
42,7,1,0.6321302,['n'],1,right,['0'],6,0.3338455,0.4,0,FastAcc,1,18,Woman,Right,NA,1,TRUE,TRUE,TRUE,TRUE
43,7,1,0.5662577,['c'],1,left,['0'],6,0.2838635,0.4,0,FastAcc,1,18,Woman,Right,NA,1,TRUE,TRUE,TRUE,TRUE
44,7,1,1.1496094,['n'],1,right,['0'],6,0.284003,0.2,0,FastAcc,1,18,Woman,Right,NA,1,TRUE,TRUE,TRUE,TRUE
45,7,1,2.9152706,['n'],1,right,['8'],4,2.1003743,0.2,0,FastAcc,1,18,Woman,Right,NA,1,TRUE,TRUE,TRUE,TRUE
46,7,1,0.5161707,['c'],1,left,['0'],6,0.3171265,0.2,0,FastAcc,1,18,Woman,Right,NA,1,TRUE,TRUE,TRUE,TRUE
47,7,1,0.5322609,['c'],1,left,['0'],6,0.2172038,0.4,0,FastAcc,1,18,Woman,Right,NA,1,TRUE,TRUE,TRUE,TRUE
48,7,1,1.882008,['c'],1,left,['0'],6,0.1670112,0.2,0,FastAcc,1,18,Woman,Right,NA,1,TRUE,TRUE,TRUE,TRUE
49,7,1,1.9325272,['c'],1,left,['3'],3,1.3506572,0.4,0,FastAcc,1,18,Woman,Right,NA,1,TRUE,TRUE,TRUE,TRUE
50,7,1,0.6328412,['c'],1,left,['9'],5,1.8337726,0.4,0,FastAcc,1,18,Woman,Right,NA,1,TRUE,TRUE,TRUE,TRUE
51,7,1,0.648946,['c'],1,left,['0'],6,0.3670604,0.2,0,FastAcc,1,18,Woman,Right,NA,1,TRUE,TRUE,TRUE,TRUE
52,7,1,1.1495496,['n'],1,right,['0'],6,0.3671884,0.2,0,FastAcc,1,18,Woman,Right,NA,1,TRUE,TRUE,TRUE,TRUE
53,7,1,0.849874,['c'],1,left,['0'],6,0.3504265,0.2,0,FastAcc,1,18,Woman,Right,NA,1,TRUE,TRUE,TRUE,TRUE
54,7,1,1.4328189,['c'],1,left,['0'],6,0.3337528,0.1,0,FastAcc,1,18,Woman,Right,NA,1,TRUE,TRUE,TRUE,TRUE
55,7,1,1.2654718,['c'],0,right,['9'],5,0.8338328,0.1,0,FastAcc,1,18,Woman,Right,NA,1,TRUE,TRUE,TRUE,TRUE
56,7,1,1.6663573,['n'],1,right,['2'],2,0.6340469,0.1,0,FastAcc,1,18,Woman,Right,NA,1,TRUE,TRUE,TRUE,TRUE
57,7,1,1.7153917,['n'],1,right,['3'],3,0.9339145,0.2,0,FastAcc,1,18,Woman,Right,NA,1,TRUE,TRUE,TRUE,TRUE
58,7,1,2.3835097,['c'],1,left,['3'],3,1.3005233,0.1,0,FastAcc,1,18,Woman,Right,NA,1,TRUE,TRUE,TRUE,TRUE
59,7,1,2.0328972,['c'],1,left,['9'],5,0.4505047,0.4,0,FastAcc,1,18,Woman,Right,NA,1,TRUE,TRUE,TRUE,TRUE
0,8,1,0.9989989,['n'],1,right,['9'],5,0.5340152,0.2,0,FastFast,1,18,Woman,Right,NA,1,TRUE,TRUE,TRUE,TRUE
1,8,1,0.8995289,['n'],1,right,['9'],5,0.3506685,0.2,0,FastFast,1,18,Woman,Right,NA,1,TRUE,TRUE,TRUE,TRUE
2,8,1,1.6163058,['c'],0,right,['1'],1,1.1004699,0.1,0,FastFast,1,18,Woman,Right,NA,1,TRUE,TRUE,TRUE,TRUE
3,8,1,2.0993851,['n'],0,left,['2'],2,0.3672093,0.1,0,FastFast,1,18,Woman,Right,NA,1,TRUE,TRUE,TRUE,TRUE
4,8,1,1.2332311,['n'],1,right,['0'],6,0.9839075,0.2,0,FastFast,1,18,Woman,Right,NA,1,TRUE,TRUE,TRUE,TRUE
5,8,1,1.2993525,['n'],1,right,['8'],4,0.4337595,0.1,0,FastFast,1,18,Woman,Right,NA,1,TRUE,TRUE,TRUE,TRUE
6,8,1,1.0994082,['n'],1,right,['2'],2,0.9505496,0.1,0,FastFast,1,18,Woman,Right,NA,1,TRUE,TRUE,TRUE,TRUE
7,8,1,1.3334341,['c'],0,right,['2'],2,0.4834932,0.1,0,FastFast,1,18,Woman,Right,NA,1,TRUE,TRUE,TRUE,TRUE
8,8,1,1.0670464,['n'],0,left,['9'],5,0.4840543,0.1,0,FastFast,1,18,Woman,Right,NA,1,TRUE,TRUE,TRUE,TRUE
9,8,1,1.2330658,['c'],1,left,['0'],6,0.3339289,0.4,0,FastFast,1,18,Woman,Right,NA,1,TRUE,TRUE,TRUE,TRUE
10,8,1,1.0326463,['n'],1,right,['2'],2,0.4504459,0.1,0,FastFast,1,18,Woman,Right,NA,1,TRUE,TRUE,TRUE,TRUE
11,8,1,0.7828236,['c'],1,left,['9'],5,0.3003707,0.2,0,FastFast,1,18,Woman,Right,NA,1,TRUE,TRUE,TRUE,TRUE
12,8,1,1.7162953,['n'],0,left,['9'],5,0.3670897,0.2,0,FastFast,1,18,Woman,Right,NA,1,TRUE,TRUE,TRUE,TRUE
13,8,1,1.1492918,['n'],1,right,['0'],6,0.2503996,0.2,0,FastFast,1,18,Woman,Right,NA,1,TRUE,TRUE,TRUE,TRUE
14,8,1,1.6825249,['n'],1,right,['0'],6,0.9173174,0.4,0,FastFast,1,18,Woman,Right,NA,1,TRUE,TRUE,TRUE,TRUE
15,8,1,1.1157897,['n'],1,right,['0'],6,0.2172896,0.4,0,FastFast,1,18,Woman,Right,NA,1,TRUE,TRUE,TRUE,TRUE
16,8,1,1.1163303,['c'],1,left,['0'],6,1.3007924,0.4,0,FastFast,1,18,Woman,Right,NA,1,TRUE,TRUE,TRUE,TRUE
17,8,1,0.9827922,['n'],1,right,['0'],6,0.1837635,0.4,0,FastFast,1,18,Woman,Right,NA,1,TRUE,TRUE,TRUE,TRUE
18,8,1,1.0497031,['n'],1,right,['0'],6,0.267176,0.2,0,FastFast,1,18,Woman,Right,NA,1,TRUE,TRUE,TRUE,TRUE
19,8,1,0.6830331,['c'],1,left,['0'],6,0.3172682,0.2,0,FastFast,1,18,Woman,Right,NA,1,TRUE,TRUE,TRUE,TRUE
20,8,1,0.9667024,['c'],0,right,['1'],1,0.9839261,0.2,0,FastFast,1,18,Woman,Right,NA,1,TRUE,TRUE,TRUE,TRUE
21,8,1,0.8995301,['c'],1,left,['0'],6,0.2337414,0.4,0,FastFast,1,18,Woman,Right,NA,1,TRUE,TRUE,TRUE,TRUE
22,8,1,0.6494346,['c'],1,left,['0'],6,0.2170898,0.4,0,FastFast,1,18,Woman,Right,NA,1,TRUE,TRUE,TRUE,TRUE
23,8,1,0.5330554,['c'],1,left,['0'],6,0.2337871,0.4,0,FastFast,1,18,Woman,Right,NA,1,TRUE,TRUE,TRUE,TRUE
24,8,1,0.6163458,['n'],1,right,['0'],6,0.383805,0.4,0,FastFast,1,18,Woman,Right,NA,1,TRUE,TRUE,TRUE,TRUE
25,8,1,0.7338026,['c'],1,left,['0'],6,0.3339263,0.2,0,FastFast,1,18,Woman,Right,NA,1,TRUE,TRUE,TRUE,TRUE
26,8,1,0.6488249,['c'],1,left,['0'],6,0.2004457,0.2,0,FastFast,1,18,Woman,Right,NA,1,TRUE,TRUE,TRUE,TRUE
27,8,1,0.6161736,['c'],1,left,['0'],6,0.1505177,0.4,0,FastFast,1,18,Woman,Right,NA,1,TRUE,TRUE,TRUE,TRUE
28,8,1,0.8662338,['n'],1,right,['0'],6,0.2004548,0.2,0,FastFast,1,18,Woman,Right,NA,1,TRUE,TRUE,TRUE,TRUE
29,8,1,0.6652415,['c'],0,right,['0'],6,0.25051,0.1,0,FastFast,1,18,Woman,Right,NA,1,TRUE,TRUE,TRUE,TRUE
30,8,1,2.3836432,['c'],0,right,['2'],2,0.6172185,0.2,0,FastFast,1,18,Woman,Right,NA,1,TRUE,TRUE,TRUE,TRUE
31,8,1,0.9162885,['c'],1,left,['0'],6,0.1506326,0.2,0,FastFast,1,18,Woman,Right,NA,1,TRUE,TRUE,TRUE,TRUE
32,8,1,0.53352,['c'],1,left,['0'],6,0.1670002,0.4,0,FastFast,1,18,Woman,Right,NA,1,TRUE,TRUE,TRUE,TRUE
33,8,1,0.733809,['c'],0,right,['0'],6,0.1504157,0.1,0,FastFast,1,18,Woman,Right,NA,1,TRUE,TRUE,TRUE,TRUE
34,8,1,1.0494924,['n'],1,right,['2'],2,0.6340141,0.1,0,FastFast,1,18,Woman,Right,NA,1,TRUE,TRUE,TRUE,TRUE
35,8,1,1.2159353,['c'],0,right,['3'],3,0.7837359,0.4,0,FastFast,1,18,Woman,Right,NA,1,TRUE,TRUE,TRUE,TRUE
36,8,1,0.8155484,['c'],1,left,['8'],4,0.6172577,0.1,0,FastFast,1,18,Woman,Right,NA,1,TRUE,TRUE,TRUE,TRUE
37,8,1,0.8499418,['c'],1,left,['0'],6,0.2840444,0.2,0,FastFast,1,18,Woman,Right,NA,1,TRUE,TRUE,TRUE,TRUE
38,8,1,0.6661647,['c'],1,left,['0'],6,0.2338818,0.4,0,FastFast,1,18,Woman,Right,NA,1,TRUE,TRUE,TRUE,TRUE
39,8,1,0.8163487,['c'],1,left,['0'],6,0.5672171,0.2,0,FastFast,1,18,Woman,Right,NA,1,TRUE,TRUE,TRUE,TRUE
40,8,1,0.7990281,['n'],1,right,['0'],6,0.3172612,0.2,0,FastFast,1,18,Woman,Right,NA,1,TRUE,TRUE,TRUE,TRUE
41,8,1,0.6495202,['c'],1,left,['0'],6,0.2004901,0.4,0,FastFast,1,18,Woman,Right,NA,1,TRUE,TRUE,TRUE,TRUE
42,8,1,0.7329296,['n'],1,right,['0'],6,0.2837796,0.4,0,FastFast,1,18,Woman,Right,NA,1,TRUE,TRUE,TRUE,TRUE
43,8,1,0.6497034,['c'],1,left,['0'],6,0.6341249,0.1,0,FastFast,1,18,Woman,Right,NA,1,TRUE,TRUE,TRUE,TRUE
44,8,1,2.1492958,['n'],1,right,['3'],3,0.5505467,0.1,0,FastFast,1,18,Woman,Right,NA,1,TRUE,TRUE,TRUE,TRUE
45,8,1,0.8162655,['c'],1,left,['0'],6,0.3839624,0.4,0,FastFast,1,18,Woman,Right,NA,1,TRUE,TRUE,TRUE,TRUE
46,8,1,1.3661328,['n'],1,right,['2'],2,0.4669884,0.1,0,FastFast,1,18,Woman,Right,NA,1,TRUE,TRUE,TRUE,TRUE
47,8,1,0.7822583,['c'],1,left,['9'],5,0.4671843,0.1,0,FastFast,1,18,Woman,Right,NA,1,TRUE,TRUE,TRUE,TRUE
48,8,1,0.699504,['n'],1,right,['0'],6,0.3005822,0.4,0,FastFast,1,18,Woman,Right,NA,1,TRUE,TRUE,TRUE,TRUE
49,8,1,0.6322387,['c'],1,left,['0'],6,0.1838374,0.2,0,FastFast,1,18,Woman,Right,NA,1,TRUE,TRUE,TRUE,TRUE
50,8,1,1.1497726,['n'],1,right,['3'],3,1.0838053,0.2,0,FastFast,1,18,Woman,Right,NA,1,TRUE,TRUE,TRUE,TRUE
51,8,1,0.6822963,['c'],1,left,['9'],5,0.5171877,0.1,0,FastFast,1,18,Woman,Right,NA,1,TRUE,TRUE,TRUE,TRUE
52,8,1,2.283421,['n'],0,left,['1'],1,0.3838326,0.1,0,FastFast,1,18,Woman,Right,NA,1,TRUE,TRUE,TRUE,TRUE
53,8,1,1.0165381,['c'],1,left,['2'],2,0.317271,0.1,0,FastFast,1,18,Woman,Right,NA,1,TRUE,TRUE,TRUE,TRUE
54,8,1,1.4823086,['c'],1,left,['0'],6,0.5004866,0.1,0,FastFast,1,18,Woman,Right,NA,1,TRUE,TRUE,TRUE,TRUE
55,8,1,0.9328268,['n'],1,right,['0'],6,0.3170429,0.4,0,FastFast,1,18,Woman,Right,NA,1,TRUE,TRUE,TRUE,TRUE
56,8,1,0.6832724,['c'],1,left,['0'],6,0.2338876,0.4,0,FastFast,1,18,Woman,Right,NA,1,TRUE,TRUE,TRUE,TRUE
57,8,1,1.5159685,['n'],1,right,['8'],4,0.6336906,0.2,0,FastFast,1,18,Woman,Right,NA,1,TRUE,TRUE,TRUE,TRUE
58,8,1,0.8654427,['c'],1,left,['9'],5,1.2833977,0.1,0,FastFast,1,18,Woman,Right,NA,1,TRUE,TRUE,TRUE,TRUE
59,8,1,0.8655031,['n'],1,right,['0'],6,0.2165504,0.4,0,FastFast,1,18,Woman,Right,NA,1,TRUE,TRUE,TRUE,TRUE
0,9,1,0.9329198,['n'],1,right,['0'],6,1.6842182,0.1,0,AccFast,1,18,Woman,Right,NA,1,TRUE,TRUE,TRUE,TRUE
1,9,1,2.2329198,['c'],0,right,['3'],3,1.0172472,0.1,0,AccFast,1,18,Woman,Right,NA,1,TRUE,TRUE,TRUE,TRUE
2,9,1,2.2154889,['n'],0,left,['1'],1,0.2505232,0.1,0,AccFast,1,18,Woman,Right,NA,1,TRUE,TRUE,TRUE,TRUE
3,9,1,0.9491012,['c'],1,left,['8'],4,0.5840542,0.2,0,AccFast,1,18,Woman,Right,NA,1,TRUE,TRUE,TRUE,TRUE
4,9,1,0.8328202,['n'],1,right,['0'],6,0.4171649,0.4,0,AccFast,1,18,Woman,Right,NA,1,TRUE,TRUE,TRUE,TRUE
5,9,1,1.216424,['c'],0,right,['3'],3,0.5837645,0.1,0,AccFast,1,18,Woman,Right,NA,1,TRUE,TRUE,TRUE,TRUE
6,9,1,2.3994722,['n'],1,right,['0'],6,0.8003551,0.1,0,AccFast,1,18,Woman,Right,NA,1,TRUE,TRUE,TRUE,TRUE
7,9,1,0.6334008,['c'],1,left,['0'],6,0.2838526,0.4,0,AccFast,1,18,Woman,Right,NA,1,TRUE,TRUE,TRUE,TRUE
8,9,1,0.7154974,['n'],1,right,['9'],5,0.4837695,0.2,0,AccFast,1,18,Woman,Right,NA,1,TRUE,TRUE,TRUE,TRUE
9,9,1,0.7326253,['c'],1,left,['9'],5,0.3671786,0.1,0,AccFast,1,18,Woman,Right,NA,1,TRUE,TRUE,TRUE,TRUE
10,9,1,1.3655952,['c'],1,left,['0'],6,0.2338519,0.1,0,AccFast,1,18,Woman,Right,NA,1,TRUE,TRUE,TRUE,TRUE
11,9,1,1.9657924,['n'],1,right,['2'],2,0.8332193,0.1,0,AccFast,1,18,Woman,Right,NA,1,TRUE,TRUE,TRUE,TRUE
12,9,1,0.6482525,['c'],1,left,['9'],5,0.7005116,0.4,0,AccFast,1,18,Woman,Right,NA,1,TRUE,TRUE,TRUE,TRUE
13,9,1,2.4672184,['c'],0,right,['2'],2,0.5840278,0.1,0,AccFast,1,18,Woman,Right,NA,1,TRUE,TRUE,TRUE,TRUE
14,9,1,1.0823094,['c'],1,left,['0'],6,0.5999954,0.2,0,AccFast,1,18,Woman,Right,NA,1,TRUE,TRUE,TRUE,TRUE
15,9,1,1.7661896,['n'],1,right,['0'],6,0.4339534,0.4,0,AccFast,1,18,Woman,Right,NA,1,TRUE,TRUE,TRUE,TRUE
16,9,1,0.8991902,['c'],0,right,['8'],4,0.5838451,0.2,0,AccFast,1,18,Woman,Right,NA,1,TRUE,TRUE,TRUE,TRUE
17,9,1,0.8663695,['n'],1,right,['0'],6,0.4839,0.4,0,AccFast,1,18,Woman,Right,NA,1,TRUE,TRUE,TRUE,TRUE
18,9,1,0.5993473,['c'],1,left,['0'],6,0.2669607,0.1,0,AccFast,1,18,Woman,Right,NA,1,TRUE,TRUE,TRUE,TRUE
19,9,1,1.0496022,['c'],0,right,['0'],6,0.2671231,0.2,0,AccFast,1,18,Woman,Right,NA,1,TRUE,TRUE,TRUE,TRUE
20,9,1,0.8995724,['n'],1,right,['0'],6,0.3838161,0.2,0,AccFast,1,18,Woman,Right,NA,1,TRUE,TRUE,TRUE,TRUE
21,9,1,0.5494725,['c'],1,left,['0'],6,0.20046,0.4,0,AccFast,1,18,Woman,Right,NA,1,TRUE,TRUE,TRUE,TRUE
22,9,1,1.1997837,['n'],1,right,['0'],6,0.2337903,0.4,0,AccFast,1,18,Woman,Right,NA,1,TRUE,TRUE,TRUE,TRUE
23,9,1,0.966356,['c'],1,left,['0'],6,0.2671924,0.4,0,AccFast,1,18,Woman,Right,NA,1,TRUE,TRUE,TRUE,TRUE
24,9,1,0.8156292,['n'],1,right,['0'],6,0.200591,0.4,0,AccFast,1,18,Woman,Right,NA,1,TRUE,TRUE,TRUE,TRUE
25,9,1,0.8669511,['n'],1,right,['0'],6,0.2005201,0.4,0,AccFast,1,18,Woman,Right,NA,1,TRUE,TRUE,TRUE,TRUE
26,9,1,0.6162061,['n'],1,right,['0'],6,0.2671537,0.4,0,AccFast,1,18,Woman,Right,NA,1,TRUE,TRUE,TRUE,TRUE
27,9,1,0.666562,['c'],1,left,['0'],6,0.3008282,0.2,0,AccFast,1,18,Woman,Right,NA,1,TRUE,TRUE,TRUE,TRUE
28,9,1,1.5662397,['c'],0,right,['2'],2,0.7668816,0.1,0,AccFast,1,18,Woman,Right,NA,1,TRUE,TRUE,TRUE,TRUE
29,9,1,0.682761,['c'],1,left,['0'],6,0.9838999,0.2,0,AccFast,1,18,Woman,Right,NA,1,TRUE,TRUE,TRUE,TRUE
30,9,1,0.8665407,['n'],1,right,['0'],6,0.3335913,0.4,0,AccFast,1,18,Woman,Right,NA,1,TRUE,TRUE,TRUE,TRUE
31,9,1,1.0173782,['c'],1,left,['0'],6,0.3339427,0.4,0,AccFast,1,18,Woman,Right,NA,1,TRUE,TRUE,TRUE,TRUE
32,9,1,1.7168433,['n'],1,right,['0'],6,0.367134,0.4,0,AccFast,1,18,Woman,Right,NA,1,TRUE,TRUE,TRUE,TRUE
33,9,1,1.5995133,['c'],0,right,['3'],3,0.9171891,0.1,0,AccFast,1,18,Woman,Right,NA,1,TRUE,TRUE,TRUE,TRUE
34,9,1,0.6327748,['c'],1,left,['9'],5,0.900549,0.2,0,AccFast,1,18,Woman,Right,NA,1,TRUE,TRUE,TRUE,TRUE
35,9,1,1.316526,['n'],1,right,['3'],3,1.0838806,0.1,0,AccFast,1,18,Woman,Right,NA,1,TRUE,TRUE,TRUE,TRUE
36,9,1,1.6831112,['c'],1,left,['0'],6,0.2172781,0.4,0,AccFast,1,18,Woman,Right,NA,1,TRUE,TRUE,TRUE,TRUE
37,9,1,1.1993764,['c'],1,left,['0'],6,0.1671371,0.2,0,AccFast,1,18,Woman,Right,NA,1,TRUE,TRUE,TRUE,TRUE
38,9,1,0.9328464,['n'],1,right,['0'],6,0.1504937,0.2,0,AccFast,1,18,Woman,Right,NA,1,TRUE,TRUE,TRUE,TRUE
39,9,1,0.7331859,['c'],1,left,['0'],6,0.1004866,0.2,0,AccFast,1,18,Woman,Right,NA,1,TRUE,TRUE,TRUE,TRUE
40,9,1,0.799223,['c'],1,left,['0'],6,0.1505001,0.2,0,AccFast,1,18,Woman,Right,NA,1,TRUE,TRUE,TRUE,TRUE
41,9,1,0.9322052,['c'],1,left,['0'],6,0.1171689,0.2,0,AccFast,1,18,Woman,Right,NA,1,TRUE,TRUE,TRUE,TRUE
42,9,1,1.4156372,['c'],1,left,['0'],6,0.1338761,0.1,0,AccFast,1,18,Woman,Right,NA,1,TRUE,TRUE,TRUE,TRUE
43,9,1,0.6326119,['c'],1,left,['0'],6,0.1505361,0.2,0,AccFast,1,18,Woman,Right,NA,1,TRUE,TRUE,TRUE,TRUE
44,9,1,0.5663843,['c'],1,left,['0'],6,0.1337593,0.1,0,AccFast,1,18,Woman,Right,NA,1,TRUE,TRUE,TRUE,TRUE
45,9,1,0.6328724,['c'],0,right,['0'],6,0.1505067,0.1,0,AccFast,1,18,Woman,Right,NA,1,TRUE,TRUE,TRUE,TRUE
46,9,1,0.6328631,['c'],1,left,['0'],6,0.1838561,0.2,0,AccFast,1,18,Woman,Right,NA,1,TRUE,TRUE,TRUE,TRUE
47,9,1,0.8162086,['n'],1,right,['0'],6,0.2004632,0.4,0,AccFast,1,18,Woman,Right,NA,1,TRUE,TRUE,TRUE,TRUE
48,9,1,0.6489863,['c'],1,left,['0'],6,0.1504953,0.2,0,AccFast,1,18,Woman,Right,NA,1,TRUE,TRUE,TRUE,TRUE
49,9,1,1.9818799,['n'],0,left,['2'],2,0.6008176,0.1,0,AccFast,1,18,Woman,Right,NA,1,TRUE,TRUE,TRUE,TRUE
50,9,1,1.6663521,['n'],1,right,['8'],4,0.9005351,0.2,0,AccFast,1,18,Woman,Right,NA,1,TRUE,TRUE,TRUE,TRUE
51,9,1,0.5985849,['c'],1,left,['8'],4,0.7006601,0.2,0,AccFast,1,18,Woman,Right,NA,1,TRUE,TRUE,TRUE,TRUE
52,9,1,1.0324742,['c'],1,left,['0'],6,0.4503875,0.4,0,AccFast,1,18,Woman,Right,NA,1,TRUE,TRUE,TRUE,TRUE
53,9,1,1.2336043,['c'],1,left,['0'],6,0.2504355,0.4,0,AccFast,1,18,Woman,Right,NA,1,TRUE,TRUE,TRUE,TRUE
54,9,1,1.7992854,['n'],1,right,['2'],2,0.7672806,0.1,0,AccFast,1,18,Woman,Right,NA,1,TRUE,TRUE,TRUE,TRUE
55,9,1,0.89963,['n'],1,right,['9'],5,1.0170816,0.2,0,AccFast,1,18,Woman,Right,NA,1,TRUE,TRUE,TRUE,TRUE
56,9,1,0.8658801,['c'],1,left,['0'],6,0.6672131,0.1,0,AccFast,1,18,Woman,Right,NA,1,TRUE,TRUE,TRUE,TRUE
57,9,1,1.0162921,['c'],1,left,['0'],6,0.5172004,0.4,0,AccFast,1,18,Woman,Right,NA,1,TRUE,TRUE,TRUE,TRUE
58,9,1,1.1328077,['n'],1,right,['0'],6,0.3004793,0.4,0,AccFast,1,18,Woman,Right,NA,1,TRUE,TRUE,TRUE,TRUE
59,9,1,1.4992708,['c'],0,right,['2'],2,1.2338839,0.1,0,AccFast,1,18,Woman,Right,NA,1,TRUE,TRUE,TRUE,TRUE
0,10,1,1.1326628,['c'],1,left,['0'],6,1.0004649,0.4,0,AccAcc,1,18,Woman,Right,NA,1,TRUE,TRUE,TRUE,TRUE
1,10,1,1.14951,['c'],1,left,['9'],5,1.1340107,0.4,0,AccAcc,1,18,Woman,Right,NA,1,TRUE,TRUE,TRUE,TRUE
2,10,1,1.1993861,['n'],1,right,['0'],6,0.767206,0.4,0,AccAcc,1,18,Woman,Right,NA,1,TRUE,TRUE,TRUE,TRUE
3,10,1,1.8829613,['n'],1,right,['9'],5,0.867205,0.4,0,AccAcc,1,18,Woman,Right,NA,1,TRUE,TRUE,TRUE,TRUE
4,10,1,1.5828672,['c'],1,left,['0'],6,1.3509202,0.1,0,AccAcc,1,18,Woman,Right,NA,1,TRUE,TRUE,TRUE,TRUE
5,10,1,1.1658816,['n'],1,right,['0'],6,0.750408,0.4,0,AccAcc,1,18,Woman,Right,NA,1,TRUE,TRUE,TRUE,TRUE
6,10,1,2.0495362,['c'],0,right,['2'],2,1.6172297,0.1,0,AccAcc,1,18,Woman,Right,NA,1,TRUE,TRUE,TRUE,TRUE
7,10,1,3.099234,['c'],0,right,['2'],2,1.3672921,0.1,0,AccAcc,1,18,Woman,Right,NA,1,TRUE,TRUE,TRUE,TRUE
8,10,1,0.9823595,['c'],1,left,['0'],6,0.8672142,0.4,0,AccAcc,1,18,Woman,Right,NA,1,TRUE,TRUE,TRUE,TRUE
9,10,1,3.0657618,['n'],0,left,['8'],4,0.6338368,0.2,0,AccAcc,1,18,Woman,Right,NA,1,TRUE,TRUE,TRUE,TRUE
10,10,1,2.7993947,['c'],1,left,['2'],2,0.5172319,0.1,0,AccAcc,1,18,Woman,Right,NA,1,TRUE,TRUE,TRUE,TRUE
11,10,1,0.8829255,['n'],1,right,['0'],6,0.3005521,0.4,0,AccAcc,1,18,Woman,Right,NA,1,TRUE,TRUE,TRUE,TRUE
12,10,1,1.0505186,['n'],1,right,['0'],6,0.4004586,0.4,0,AccAcc,1,18,Woman,Right,NA,1,TRUE,TRUE,TRUE,TRUE
13,10,1,1.5159653,['c'],1,left,['8'],4,0.8504739,0.2,0,AccAcc,1,18,Woman,Right,NA,1,TRUE,TRUE,TRUE,TRUE
14,10,1,0.9498613,['n'],1,right,['0'],6,0.4337827,0.1,0,AccAcc,1,18,Woman,Right,NA,1,TRUE,TRUE,TRUE,TRUE
15,10,1,0.783583,['c'],1,left,['0'],6,0.6837893,0.4,0,AccAcc,1,18,Woman,Right,NA,1,TRUE,TRUE,TRUE,TRUE
16,10,1,0.7499663,['n'],1,right,['0'],6,0.4505094,0.4,0,AccAcc,1,18,Woman,Right,NA,1,TRUE,TRUE,TRUE,TRUE
17,10,1,1.5164012,['c'],1,left,['0'],6,0.8337853,0.2,0,AccAcc,1,18,Woman,Right,NA,1,TRUE,TRUE,TRUE,TRUE
18,10,1,1.099613,['c'],1,left,['9'],5,0.8504845,0.2,0,AccAcc,1,18,Woman,Right,NA,1,TRUE,TRUE,TRUE,TRUE
19,10,1,0.7995287,['n'],0,left,['9'],5,0.8006134,0.1,0,AccAcc,1,18,Woman,Right,NA,1,TRUE,TRUE,TRUE,TRUE
20,10,1,0.7162631,['c'],1,left,['0'],6,1.0172036,0.4,0,AccAcc,1,18,Woman,Right,NA,1,TRUE,TRUE,TRUE,TRUE
21,10,1,0.9661889,['n'],1,right,['0'],6,1.0672446,0.1,0,AccAcc,1,18,Woman,Right,NA,1,TRUE,TRUE,TRUE,TRUE
22,10,1,1.4662672,['n'],1,right,['9'],5,1.1336169,0.1,0,AccAcc,1,18,Woman,Right,NA,1,TRUE,TRUE,TRUE,TRUE
23,10,1,2.0831063,['n'],0,left,['9'],5,0.4334954,0.1,0,AccAcc,1,18,Woman,Right,NA,1,TRUE,TRUE,TRUE,TRUE
24,10,1,1.1825017,['c'],0,right,['3'],3,1.5674552,0.4,0,AccAcc,1,18,Woman,Right,NA,1,TRUE,TRUE,TRUE,TRUE
25,10,1,0.9837159,['c'],1,left,['8'],4,1.1839174,0.1,0,AccAcc,1,18,Woman,Right,NA,1,TRUE,TRUE,TRUE,TRUE
26,10,1,1.4997704,['n'],1,right,['0'],6,0.4670044,0.4,0,AccAcc,1,18,Woman,Right,NA,1,TRUE,TRUE,TRUE,TRUE
27,10,1,1.249486,['n'],1,right,['0'],6,0.43392,0.1,0,AccAcc,1,18,Woman,Right,NA,1,TRUE,TRUE,TRUE,TRUE
28,10,1,0.6492774,['c'],1,left,['0'],6,0.3337989,0.4,0,AccAcc,1,18,Woman,Right,NA,1,TRUE,TRUE,TRUE,TRUE
29,10,1,1.215668,['c'],1,left,['0'],6,0.4672328,0.2,0,AccAcc,1,18,Woman,Right,NA,1,TRUE,TRUE,TRUE,TRUE
30,10,1,1.3987029,['c'],0,right,['3'],3,1.0505445,0.1,0,AccAcc,1,18,Woman,Right,NA,1,TRUE,TRUE,TRUE,TRUE
31,10,1,0.9161056,['n'],1,right,['8'],4,0.9672646,0.2,0,AccAcc,1,18,Woman,Right,NA,1,TRUE,TRUE,TRUE,TRUE
32,10,1,1.6163581,['c'],1,left,['8'],4,0.4332113,0.2,0,AccAcc,1,18,Woman,Right,NA,1,TRUE,TRUE,TRUE,TRUE
33,10,1,1.0495505,['n'],1,right,['9'],5,0.6672808,0.1,0,AccAcc,1,18,Woman,Right,NA,1,TRUE,TRUE,TRUE,TRUE
34,10,1,1.0662303,['c'],1,left,['9'],5,0.5171727,0.2,0,AccAcc,1,18,Woman,Right,NA,1,TRUE,TRUE,TRUE,TRUE
35,10,1,1.7997053,['n'],0,left,['8'],4,1.6338495,0.1,0,AccAcc,1,18,Woman,Right,NA,1,TRUE,TRUE,TRUE,TRUE
36,10,1,1.6496647,['n'],1,right,['0'],6,0.4837631,0.2,0,AccAcc,1,18,Woman,Right,NA,1,TRUE,TRUE,TRUE,TRUE
37,10,1,0.849735,['c'],1,left,['0'],6,1.0672221,0.4,0,AccAcc,1,18,Woman,Right,NA,1,TRUE,TRUE,TRUE,TRUE
38,10,1,0.982504,['n'],1,right,['0'],6,0.4838308,0.2,0,AccAcc,1,18,Woman,Right,NA,1,TRUE,TRUE,TRUE,TRUE
39,10,1,0.749653,['n'],1,right,['0'],6,0.4505102,0.2,0,AccAcc,1,18,Woman,Right,NA,1,TRUE,TRUE,TRUE,TRUE
40,10,1,1.2334103,['n'],0,left,['0'],6,0.4170574,0.1,0,AccAcc,1,18,Woman,Right,NA,1,TRUE,TRUE,TRUE,TRUE
41,10,1,2.9996459,['n'],1,right,['3'],3,0.9838158,0.1,0,AccAcc,1,18,Woman,Right,NA,1,TRUE,TRUE,TRUE,TRUE
42,10,1,1.0658217,['n'],0,left,['3'],3,0.5338092,0.1,0,AccAcc,1,18,Woman,Right,NA,1,TRUE,TRUE,TRUE,TRUE
43,10,1,1.1824999,['c'],1,left,['9'],5,1.9004099,0.2,0,AccAcc,1,18,Woman,Right,NA,1,TRUE,TRUE,TRUE,TRUE
44,10,1,1.0173238,['c'],1,left,['9'],5,0.466811,0.2,0,AccAcc,1,18,Woman,Right,NA,1,TRUE,TRUE,TRUE,TRUE
45,10,1,1.0000055,['n'],1,right,['0'],6,0.2998526,0.4,0,AccAcc,1,18,Woman,Right,NA,1,TRUE,TRUE,TRUE,TRUE
46,10,1,0.9827964,['c'],1,left,['9'],5,1.1171523,0.1,0,AccAcc,1,18,Woman,Right,NA,1,TRUE,TRUE,TRUE,TRUE
47,10,1,0.6161602,['c'],1,left,['9'],5,0.4338672,0.2,0,AccAcc,1,18,Woman,Right,NA,1,TRUE,TRUE,TRUE,TRUE
48,10,1,1.0825154,['n'],0,left,['0'],6,0.4169109,0.1,0,AccAcc,1,18,Woman,Right,NA,1,TRUE,TRUE,TRUE,TRUE
49,10,1,0.7332774,['n'],1,right,['0'],6,0.3838399,0.4,0,AccAcc,1,18,Woman,Right,NA,1,TRUE,TRUE,TRUE,TRUE
50,10,1,0.7170271,['c'],1,left,['9'],5,0.7339183,0.1,0,AccAcc,1,18,Woman,Right,NA,1,TRUE,TRUE,TRUE,TRUE
51,10,1,0.8169939,['n'],1,right,['0'],6,0.3337946,0.2,0,AccAcc,1,18,Woman,Right,NA,1,TRUE,TRUE,TRUE,TRUE
52,10,1,0.5829392,['c'],1,left,['0'],6,0.6337633,0.4,0,AccAcc,1,18,Woman,Right,NA,1,TRUE,TRUE,TRUE,TRUE
53,10,1,0.6659606,['n'],1,right,['0'],6,0.3171716,0.2,0,AccAcc,1,18,Woman,Right,NA,1,TRUE,TRUE,TRUE,TRUE
54,10,1,0.816256,['n'],1,right,['0'],6,0.2501043,0.2,0,AccAcc,1,18,Woman,Right,NA,1,TRUE,TRUE,TRUE,TRUE
55,10,1,0.5994801,['c'],1,left,['0'],6,0.3504442,0.2,0,AccAcc,1,18,Woman,Right,NA,1,TRUE,TRUE,TRUE,TRUE
56,10,1,0.750568,['n'],1,right,['0'],6,0.3169907,0.4,0,AccAcc,1,18,Woman,Right,NA,1,TRUE,TRUE,TRUE,TRUE
57,10,1,0.7832481,['n'],1,right,['0'],6,0.2673045,0.2,0,AccAcc,1,18,Woman,Right,NA,1,TRUE,TRUE,TRUE,TRUE
58,10,1,0.7328731,['n'],1,right,['0'],6,0.4171312,0.2,0,AccAcc,1,18,Woman,Right,NA,1,TRUE,TRUE,TRUE,TRUE
59,10,1,0.9164179,['n'],1,right,['0'],6,1.2838501,0.4,0,AccAcc,1,18,Woman,Right,NA,1,TRUE,TRUE,TRUE,TRUE
0,11,1,0.6492913,['n'],1,right,['0'],6,1.150522,0.1,0,FastAcc,1,18,Woman,Right,NA,1,TRUE,TRUE,TRUE,TRUE
1,11,1,0.8504722,['n'],1,right,['0'],6,0.8172735,0.2,0,FastAcc,1,18,Woman,Right,NA,1,TRUE,TRUE,TRUE,TRUE
2,11,1,0.6162765,['n'],1,right,['0'],6,0.5007209,0.4,0,FastAcc,1,18,Woman,Right,NA,1,TRUE,TRUE,TRUE,TRUE
3,11,1,0.6828541,['n'],1,right,['0'],6,0.5001543,0.4,0,FastAcc,1,18,Woman,Right,NA,1,TRUE,TRUE,TRUE,TRUE
4,11,1,0.633723,['n'],1,right,['0'],6,0.5176295,0.4,0,FastAcc,1,18,Woman,Right,NA,1,TRUE,TRUE,TRUE,TRUE
5,11,1,0.6166456,['n'],1,right,['0'],6,0.4672079,0.4,0,FastAcc,1,18,Woman,Right,NA,1,TRUE,TRUE,TRUE,TRUE
6,11,1,0.6325474,['n'],1,right,['0'],6,0.4671177,0.4,0,FastAcc,1,18,Woman,Right,NA,1,TRUE,TRUE,TRUE,TRUE
7,11,1,0.6825182,['c'],1,left,['0'],6,0.483772,0.4,0,FastAcc,1,18,Woman,Right,NA,1,TRUE,TRUE,TRUE,TRUE
8,11,1,0.6331468,['n'],1,right,['0'],6,0.4173402,0.4,0,FastAcc,1,18,Woman,Right,NA,1,TRUE,TRUE,TRUE,TRUE
9,11,1,0.7335364,['n'],1,right,['0'],6,0.4840275,0.2,0,FastAcc,1,18,Woman,Right,NA,1,TRUE,TRUE,TRUE,TRUE
10,11,1,0.799568,['c'],1,left,['0'],6,0.5505181,0.2,0,FastAcc,1,18,Woman,Right,NA,1,TRUE,TRUE,TRUE,TRUE
11,11,1,0.8996681,['n'],1,right,['0'],6,0.4507959,0.2,0,FastAcc,1,18,Woman,Right,NA,1,TRUE,TRUE,TRUE,TRUE
12,11,1,2.5669324,['n'],1,right,['0'],6,0.3841626,0.2,0,FastAcc,1,18,Woman,Right,NA,1,TRUE,TRUE,TRUE,TRUE
13,11,1,2.5321885,['n'],0,left,['8'],4,1.0674464,0.1,0,FastAcc,1,18,Woman,Right,NA,1,TRUE,TRUE,TRUE,TRUE
14,11,1,0.6996828,['c'],1,left,['0'],6,0.3667802,0.4,0,FastAcc,1,18,Woman,Right,NA,1,TRUE,TRUE,TRUE,TRUE
15,11,1,0.8495015,['c'],1,left,['9'],5,0.5673065,0.1,0,FastAcc,1,18,Woman,Right,NA,1,TRUE,TRUE,TRUE,TRUE
16,11,1,1.4495373,['c'],1,left,['8'],4,0.7340644,0.2,0,FastAcc,1,18,Woman,Right,NA,1,TRUE,TRUE,TRUE,TRUE
17,11,1,1.9656154,['c'],1,left,['3'],3,1.0672178,0.1,0,FastAcc,1,18,Woman,Right,NA,1,TRUE,TRUE,TRUE,TRUE
18,11,1,0.6662184,['c'],1,left,['9'],5,0.7005464,0.4,0,FastAcc,1,18,Woman,Right,NA,1,TRUE,TRUE,TRUE,TRUE
19,11,1,0.4991723,['c'],1,left,['9'],5,0.6006107,0.4,0,FastAcc,1,18,Woman,Right,NA,1,TRUE,TRUE,TRUE,TRUE
20,11,1,0.8992298,['n'],1,right,['0'],6,0.5172674,0.1,0,FastAcc,1,18,Woman,Right,NA,1,TRUE,TRUE,TRUE,TRUE
21,11,1,0.7163277,['c'],1,left,['0'],6,0.4671798,0.2,0,FastAcc,1,18,Woman,Right,NA,1,TRUE,TRUE,TRUE,TRUE
22,11,1,0.7326441,['n'],1,right,['0'],6,0.4837558,0.4,0,FastAcc,1,18,Woman,Right,NA,1,TRUE,TRUE,TRUE,TRUE
23,11,1,0.8333433,['n'],1,right,['0'],6,0.5670965,0.2,0,FastAcc,1,18,Woman,Right,NA,1,TRUE,TRUE,TRUE,TRUE
24,11,1,0.9993335,['c'],1,left,['0'],6,0.6172973,0.2,0,FastAcc,1,18,Woman,Right,NA,1,TRUE,TRUE,TRUE,TRUE
25,11,1,0.6991175,['n'],1,right,['0'],6,0.5172119,0.4,0,FastAcc,1,18,Woman,Right,NA,1,TRUE,TRUE,TRUE,TRUE
26,11,1,1.1992292,['c'],1,left,['9'],5,0.6670156,0.1,0,FastAcc,1,18,Woman,Right,NA,1,TRUE,TRUE,TRUE,TRUE
27,11,1,0.5326423,['c'],1,left,['9'],5,0.4671451,0.2,0,FastAcc,1,18,Woman,Right,NA,1,TRUE,TRUE,TRUE,TRUE
28,11,1,1.0501415,['n'],1,right,['0'],6,0.4503912,0.1,0,FastAcc,1,18,Woman,Right,NA,1,TRUE,TRUE,TRUE,TRUE
29,11,1,1.8162603,['n'],1,right,['0'],6,0.4671159,0.1,0,FastAcc,1,18,Woman,Right,NA,1,TRUE,TRUE,TRUE,TRUE
30,11,1,1.0674168,['c'],1,left,['0'],6,0.6669914,0.4,0,FastAcc,1,18,Woman,Right,NA,1,TRUE,TRUE,TRUE,TRUE
31,11,1,0.8825648,['n'],1,right,['3'],3,0.6838383,0.1,0,FastAcc,1,18,Woman,Right,NA,1,TRUE,TRUE,TRUE,TRUE
32,11,1,1.8824618,['n'],0,left,['9'],5,0.6174032,0.1,0,FastAcc,1,18,Woman,Right,NA,1,TRUE,TRUE,TRUE,TRUE
33,11,1,0.7158084,['c'],1,left,['9'],5,0.4170471,0.2,0,FastAcc,1,18,Woman,Right,NA,1,TRUE,TRUE,TRUE,TRUE
34,11,1,1.1662751,['c'],0,right,['3'],3,1.567243,0.1,0,FastAcc,1,18,Woman,Right,NA,1,TRUE,TRUE,TRUE,TRUE
35,11,1,0.8831717,['n'],1,right,['9'],5,0.5671874,0.2,0,FastAcc,1,18,Woman,Right,NA,1,TRUE,TRUE,TRUE,TRUE
36,11,1,0.6826465,['c'],1,left,['9'],5,0.5335782,0.1,0,FastAcc,1,18,Woman,Right,NA,1,TRUE,TRUE,TRUE,TRUE
37,11,1,0.6497801,['c'],1,left,['0'],6,0.28379,0.4,0,FastAcc,1,18,Woman,Right,NA,1,TRUE,TRUE,TRUE,TRUE
38,11,1,1.1833345,['c'],1,left,['0'],6,0.2504593,0.4,0,FastAcc,1,18,Woman,Right,NA,1,TRUE,TRUE,TRUE,TRUE
39,11,1,1.0158921,['c'],1,left,['0'],6,0.2338544,0.2,0,FastAcc,1,18,Woman,Right,NA,1,TRUE,TRUE,TRUE,TRUE
40,11,1,1.4161892,['c'],1,left,['8'],4,1.767247,0.2,0,FastAcc,1,18,Woman,Right,NA,1,TRUE,TRUE,TRUE,TRUE
41,11,1,1.2491907,['n'],1,right,['9'],5,1.533811,0.1,0,FastAcc,1,18,Woman,Right,NA,1,TRUE,TRUE,TRUE,TRUE
42,11,1,1.6497194,['c'],0,right,['9'],5,0.6838395,0.2,0,FastAcc,1,18,Woman,Right,NA,1,TRUE,TRUE,TRUE,TRUE
43,11,1,2.0827435,['c'],1,left,['0'],6,0.4338894,0.2,0,FastAcc,1,18,Woman,Right,NA,1,TRUE,TRUE,TRUE,TRUE
44,11,1,0.9826709,['n'],1,right,['9'],5,0.4170128,0.2,0,FastAcc,1,18,Woman,Right,NA,1,TRUE,TRUE,TRUE,TRUE
45,11,1,0.5669855,['c'],1,left,['0'],6,0.2838452,0.4,0,FastAcc,1,18,Woman,Right,NA,1,TRUE,TRUE,TRUE,TRUE
46,11,1,1.949995,['n'],1,right,['0'],6,0.3164479,0.1,0,FastAcc,1,18,Woman,Right,NA,1,TRUE,TRUE,TRUE,TRUE
47,11,1,1.4162714,['n'],1,right,['0'],6,0.5672092,0.2,0,FastAcc,1,18,Woman,Right,NA,1,TRUE,TRUE,TRUE,TRUE
48,11,1,1.6164585,['n'],1,right,['9'],5,0.6837458,0.2,0,FastAcc,1,18,Woman,Right,NA,1,TRUE,TRUE,TRUE,TRUE
49,11,1,0.5164309,['c'],1,left,['9'],5,0.4505216,0.1,0,FastAcc,1,18,Woman,Right,NA,1,TRUE,TRUE,TRUE,TRUE
50,11,1,0.5158198,['c'],1,left,['9'],5,0.4673159,0.4,0,FastAcc,1,18,Woman,Right,NA,1,TRUE,TRUE,TRUE,TRUE
51,11,1,0.7002811,['n'],1,right,['0'],6,0.3338649,0.4,0,FastAcc,1,18,Woman,Right,NA,1,TRUE,TRUE,TRUE,TRUE
52,11,1,1.2330712,['n'],1,right,['8'],4,0.5505972,0.1,0,FastAcc,1,18,Woman,Right,NA,1,TRUE,TRUE,TRUE,TRUE
53,11,1,0.9493656,['c'],1,left,['3'],3,0.8838999,0.2,0,FastAcc,1,18,Woman,Right,NA,1,TRUE,TRUE,TRUE,TRUE
54,11,1,1.0166182,['n'],1,right,['8'],4,0.6510921,0.4,0,FastAcc,1,18,Woman,Right,NA,1,TRUE,TRUE,TRUE,TRUE
55,11,1,1.2991496,['c'],1,left,['9'],5,0.417091,0.1,0,FastAcc,1,18,Woman,Right,NA,1,TRUE,TRUE,TRUE,TRUE
56,11,1,0.5994215,['c'],1,left,['0'],6,0.2670441,0.1,0,FastAcc,1,18,Woman,Right,NA,1,TRUE,TRUE,TRUE,TRUE
57,11,1,1.5162082,['n'],0,left,['8'],4,0.6504548,0.1,0,FastAcc,1,18,Woman,Right,NA,1,TRUE,TRUE,TRUE,TRUE
58,11,1,0.5827153,['c'],1,left,['0'],6,0.4006608,0.4,0,FastAcc,1,18,Woman,Right,NA,1,TRUE,TRUE,TRUE,TRUE
59,11,1,1.2663627,['n'],1,right,['9'],5,0.5006464,0.1,0,FastAcc,1,18,Woman,Right,NA,1,TRUE,TRUE,TRUE,TRUE
0,12,1,1.1328047,['c'],1,left,['0'],6,0.1671947,0.4,0,FastFast,1,18,Woman,Right,NA,1,TRUE,TRUE,TRUE,TRUE
1,12,1,0.7326262,['n'],1,right,['0'],6,0.2506595,0.2,0,FastFast,1,18,Woman,Right,NA,1,TRUE,TRUE,TRUE,TRUE
2,12,1,0.699886,['n'],1,right,['0'],6,0.2338253,0.2,0,FastFast,1,18,Woman,Right,NA,1,TRUE,TRUE,TRUE,TRUE
3,12,1,0.4828897,['c'],1,left,['0'],6,0.2172975,0.4,0,FastFast,1,18,Woman,Right,NA,1,TRUE,TRUE,TRUE,TRUE
4,12,1,0.7829321,['c'],1,left,['0'],6,0.3671395,0.1,0,FastFast,1,18,Woman,Right,NA,1,TRUE,TRUE,TRUE,TRUE
5,12,1,0.6999817,['n'],1,right,['0'],6,0.3000056,0.2,0,FastFast,1,18,Woman,Right,NA,1,TRUE,TRUE,TRUE,TRUE
6,12,1,0.6661389,['n'],1,right,['0'],6,0.3171207,0.2,0,FastFast,1,18,Woman,Right,NA,1,TRUE,TRUE,TRUE,TRUE
7,12,1,1.465956,['n'],1,right,['3'],3,0.4838032,0.1,0,FastFast,1,18,Woman,Right,NA,1,TRUE,TRUE,TRUE,TRUE
8,12,1,0.9826274,['n'],1,right,['3'],3,0.3506316,0.1,0,FastFast,1,18,Woman,Right,NA,1,TRUE,TRUE,TRUE,TRUE
9,12,1,0.9162293,['n'],0,left,['8'],4,0.2171647,0.1,0,FastFast,1,18,Woman,Right,NA,1,TRUE,TRUE,TRUE,TRUE
10,12,1,1.4663507,['c'],1,left,['1'],1,0.2171501,0.1,0,FastFast,1,18,Woman,Right,NA,1,TRUE,TRUE,TRUE,TRUE
11,12,1,1.7830655,['c'],1,left,['2'],2,0.3670125,0.2,0,FastFast,1,18,Woman,Right,NA,1,TRUE,TRUE,TRUE,TRUE
12,12,1,0.8827831,['c'],1,left,['9'],5,0.5506087,0.4,0,FastFast,1,18,Woman,Right,NA,1,TRUE,TRUE,TRUE,TRUE
13,12,1,0.7660982,['n'],1,right,['9'],5,0.3337733,0.2,0,FastFast,1,18,Woman,Right,NA,1,TRUE,TRUE,TRUE,TRUE
14,12,1,3.0495938,['n'],1,right,['1'],1,1.0672241,0.1,0,FastFast,1,18,Woman,Right,NA,1,TRUE,TRUE,TRUE,TRUE
15,12,1,0.8995141,['n'],1,right,['0'],6,0.3171248,0.4,0,FastFast,1,18,Woman,Right,NA,1,TRUE,TRUE,TRUE,TRUE
16,12,1,0.8162099,['n'],1,right,['0'],6,0.5504811,0.2,0,FastFast,1,18,Woman,Right,NA,1,TRUE,TRUE,TRUE,TRUE
17,12,1,0.6995574,['n'],1,right,['0'],6,0.3005749,0.4,0,FastFast,1,18,Woman,Right,NA,1,TRUE,TRUE,TRUE,TRUE
18,12,1,1.3495994,['c'],1,left,['8'],4,0.7671267,0.1,0,FastFast,1,18,Woman,Right,NA,1,TRUE,TRUE,TRUE,TRUE
19,12,1,0.5660158,['c'],1,left,['8'],4,0.3172225,0.2,0,FastFast,1,18,Woman,Right,NA,1,TRUE,TRUE,TRUE,TRUE
20,12,1,1.2656791,['n'],1,right,['0'],6,0.2671809,0.1,0,FastFast,1,18,Woman,Right,NA,1,TRUE,TRUE,TRUE,TRUE
21,12,1,0.6161442,['c'],1,left,['3'],3,0.950593,0.4,0,FastFast,1,18,Woman,Right,NA,1,TRUE,TRUE,TRUE,TRUE
22,12,1,1.0830395,['n'],1,right,['0'],6,0.1672016,0.4,0,FastFast,1,18,Woman,Right,NA,1,TRUE,TRUE,TRUE,TRUE
23,12,1,1.3660356,['c'],1,left,['3'],3,0.7005515,0.1,0,FastFast,1,18,Woman,Right,NA,1,TRUE,TRUE,TRUE,TRUE
24,12,1,0.7664451,['c'],1,left,['3'],3,0.767296,0.2,0,FastFast,1,18,Woman,Right,NA,1,TRUE,TRUE,TRUE,TRUE
25,12,1,1.1823959,['c'],1,left,['0'],6,0.200572,0.4,0,FastFast,1,18,Woman,Right,NA,1,TRUE,TRUE,TRUE,TRUE
26,12,1,2.0329643,['n'],1,right,['2'],2,1.3840915,0.1,0,FastFast,1,18,Woman,Right,NA,1,TRUE,TRUE,TRUE,TRUE
27,12,1,0.7659269,['n'],1,right,['0'],6,0.2837939,0.2,0,FastFast,1,18,Woman,Right,NA,1,TRUE,TRUE,TRUE,TRUE
28,12,1,0.9842042,['n'],1,right,['9'],5,0.5503424,0.2,0,FastFast,1,18,Woman,Right,NA,1,TRUE,TRUE,TRUE,TRUE
29,12,1,2.1997671,['n'],1,right,['2'],2,0.3339004,0.1,0,FastFast,1,18,Woman,Right,NA,1,TRUE,TRUE,TRUE,TRUE
30,12,1,1.7662072,['c'],1,left,['1'],1,0.6338937,0.1,0,FastFast,1,18,Woman,Right,NA,1,TRUE,TRUE,TRUE,TRUE
31,12,1,2.0160638,['n'],1,right,['1'],1,0.3004234,0.1,0,FastFast,1,18,Woman,Right,NA,1,TRUE,TRUE,TRUE,TRUE
32,12,1,1.0829911,['n'],1,right,['9'],5,0.6671608,0.4,0,FastFast,1,18,Woman,Right,NA,1,TRUE,TRUE,TRUE,TRUE
33,12,1,1.5830413,['c'],0,right,['2'],2,0.417264,0.2,0,FastFast,1,18,Woman,Right,NA,1,TRUE,TRUE,TRUE,TRUE
34,12,1,0.8327672,['n'],1,right,['9'],5,0.4838305,0.2,0,FastFast,1,18,Woman,Right,NA,1,TRUE,TRUE,TRUE,TRUE
35,12,1,1.2164384,['c'],1,left,['0'],6,0.2338732,0.4,0,FastFast,1,18,Woman,Right,NA,1,TRUE,TRUE,TRUE,TRUE
36,12,1,2.599693,['c'],1,left,['2'],2,0.4004966,0.1,0,FastFast,1,18,Woman,Right,NA,1,TRUE,TRUE,TRUE,TRUE
37,12,1,1.2495501,['c'],1,left,['9'],5,0.3838555,0.1,0,FastFast,1,18,Woman,Right,NA,1,TRUE,TRUE,TRUE,TRUE
38,12,1,0.8995124,['n'],1,right,['0'],6,0.2170829,0.4,0,FastFast,1,18,Woman,Right,NA,1,TRUE,TRUE,TRUE,TRUE
39,12,1,0.6825691,['c'],1,left,['0'],6,0.2670907,0.4,0,FastFast,1,18,Woman,Right,NA,1,TRUE,TRUE,TRUE,TRUE
40,12,1,1.3161284,['c'],1,left,['2'],2,0.5505103,0.1,0,FastFast,1,18,Woman,Right,NA,1,TRUE,TRUE,TRUE,TRUE
41,12,1,0.6993032,['c'],1,left,['8'],4,1.333212,0.2,0,FastFast,1,18,Woman,Right,NA,1,TRUE,TRUE,TRUE,TRUE
42,12,1,0.7161669,['n'],1,right,['0'],6,0.2340155,0.4,0,FastFast,1,18,Woman,Right,NA,1,TRUE,TRUE,TRUE,TRUE
43,12,1,0.9830429,['c'],1,left,['0'],6,0.8506027,0.1,0,FastFast,1,18,Woman,Right,NA,1,TRUE,TRUE,TRUE,TRUE
44,12,1,1.5662011,['c'],1,left,['8'],4,0.7006017,0.2,0,FastFast,1,18,Woman,Right,NA,1,TRUE,TRUE,TRUE,TRUE
45,12,1,0.6991341,['n'],1,right,['0'],6,0.6505114,0.4,0,FastFast,1,18,Woman,Right,NA,1,TRUE,TRUE,TRUE,TRUE
46,12,1,1.3171581,['n'],1,right,['8'],4,0.750935,0.2,0,FastFast,1,18,Woman,Right,NA,1,TRUE,TRUE,TRUE,TRUE
47,12,1,0.9155434,['c'],1,left,['9'],5,0.2837447,0.2,0,FastFast,1,18,Woman,Right,NA,1,TRUE,TRUE,TRUE,TRUE
48,12,1,1.3662755,['c'],0,right,['8'],4,0.3838034,0.1,0,FastFast,1,18,Woman,Right,NA,1,TRUE,TRUE,TRUE,TRUE
49,12,1,1.2495236,['c'],1,left,['8'],4,0.8339019,0.2,0,FastFast,1,18,Woman,Right,NA,1,TRUE,TRUE,TRUE,TRUE
50,12,1,0.8162813,['c'],1,left,['9'],5,0.5506254,0.4,0,FastFast,1,18,Woman,Right,NA,1,TRUE,TRUE,TRUE,TRUE
51,12,1,0.6663703,['c'],1,left,['0'],6,0.1838211,0.4,0,FastFast,1,18,Woman,Right,NA,1,TRUE,TRUE,TRUE,TRUE
52,12,1,1.4667879,['c'],1,left,['9'],5,0.2507295,0.1,0,FastFast,1,18,Woman,Right,NA,1,TRUE,TRUE,TRUE,TRUE
53,12,1,0.4994685,['n'],1,right,['9'],5,0.3005809,0.2,0,FastFast,1,18,Woman,Right,NA,1,TRUE,TRUE,TRUE,TRUE
54,12,1,0.899336,['c'],0,right,['9'],5,0.1671218,0.1,0,FastFast,1,18,Woman,Right,NA,1,TRUE,TRUE,TRUE,TRUE
55,12,1,1.1995553,['c'],1,left,['0'],6,0.183873,0.4,0,FastFast,1,18,Woman,Right,NA,1,TRUE,TRUE,TRUE,TRUE
56,12,1,0.7503619,['n'],1,right,['0'],6,0.266492,0.4,0,FastFast,1,18,Woman,Right,NA,1,TRUE,TRUE,TRUE,TRUE
57,12,1,0.6330524,['c'],1,left,['0'],6,0.2337619,0.2,0,FastFast,1,18,Woman,Right,NA,1,TRUE,TRUE,TRUE,TRUE
58,12,1,0.5993801,['n'],1,right,['0'],6,0.233758,0.4,0,FastFast,1,18,Woman,Right,NA,1,TRUE,TRUE,TRUE,TRUE
59,12,1,0.8834589,['c'],1,left,['0'],6,0.2171973,0.4,0,FastFast,1,18,Woman,Right,NA,1,TRUE,TRUE,TRUE,TRUE
0,13,1,0.8995594,['n'],1,right,['0'],6,0.6005457,0.4,0,AccFast,1,18,Woman,Right,NA,1,TRUE,TRUE,TRUE,TRUE
1,13,1,0.7837628,['c'],1,left,['0'],6,0.3338262,0.1,0,AccFast,1,18,Woman,Right,NA,1,TRUE,TRUE,TRUE,TRUE
2,13,1,0.8661202,['c'],1,left,['0'],6,0.183825,0.1,0,AccFast,1,18,Woman,Right,NA,1,TRUE,TRUE,TRUE,TRUE
3,13,1,0.6335401,['c'],1,left,['0'],6,0.3505181,0.4,0,AccFast,1,18,Woman,Right,NA,1,TRUE,TRUE,TRUE,TRUE
4,13,1,0.7503515,['c'],1,left,['0'],6,0.1505039,0.1,0,AccFast,1,18,Woman,Right,NA,1,TRUE,TRUE,TRUE,TRUE
5,13,1,0.8159364,['n'],1,right,['0'],6,0.1672002,0.4,0,AccFast,1,18,Woman,Right,NA,1,TRUE,TRUE,TRUE,TRUE
6,13,1,0.5503104,['c'],1,left,['0'],6,0.1837879,0.4,0,AccFast,1,18,Woman,Right,NA,1,TRUE,TRUE,TRUE,TRUE
7,13,1,0.7169232,['n'],1,right,['0'],6,0.2005838,0.4,0,AccFast,1,18,Woman,Right,NA,1,TRUE,TRUE,TRUE,TRUE
8,13,1,0.5160716,['c'],1,left,['0'],6,0.1672352,0.2,0,AccFast,1,18,Woman,Right,NA,1,TRUE,TRUE,TRUE,TRUE
9,13,1,0.6661697,['n'],1,right,['0'],6,0.1671684,0.2,0,AccFast,1,18,Woman,Right,NA,1,TRUE,TRUE,TRUE,TRUE
10,13,1,0.8495303,['c'],1,left,['0'],6,0.1504948,0.4,0,AccFast,1,18,Woman,Right,NA,1,TRUE,TRUE,TRUE,TRUE
11,13,1,0.4829632,['n'],1,right,['0'],6,0.1838311,0.4,0,AccFast,1,18,Woman,Right,NA,1,TRUE,TRUE,TRUE,TRUE
12,13,1,0.4164265,['c'],0,right,['1'],1,0.2170923,0.1,0,AccFast,1,18,Woman,Right,NA,1,TRUE,TRUE,TRUE,TRUE
13,13,1,1.0829179,['c'],1,left,['0'],6,0.4504995,0.1,0,AccFast,1,18,Woman,Right,NA,1,TRUE,TRUE,TRUE,TRUE
14,13,1,0.5166027,['c'],1,left,['0'],6,0.133996,0.1,0,AccFast,1,18,Woman,Right,NA,1,TRUE,TRUE,TRUE,TRUE
15,13,1,0.9827186,['n'],1,right,['8'],4,0.5171013,0.1,0,AccFast,1,18,Woman,Right,NA,1,TRUE,TRUE,TRUE,TRUE
16,13,1,1.9828257,['c'],1,left,['3'],3,0.9838453,0.1,0,AccFast,1,18,Woman,Right,NA,1,TRUE,TRUE,TRUE,TRUE
17,13,1,0.8830494,['c'],1,left,['9'],5,0.2838273,0.2,0,AccFast,1,18,Woman,Right,NA,1,TRUE,TRUE,TRUE,TRUE
18,13,1,1.8494198,['c'],0,right,['2'],2,0.4173348,0.1,0,AccFast,1,18,Woman,Right,NA,1,TRUE,TRUE,TRUE,TRUE
19,13,1,0.9165533,['n'],1,right,['9'],5,0.4340626,0.2,0,AccFast,1,18,Woman,Right,NA,1,TRUE,TRUE,TRUE,TRUE
20,13,1,1.0161673,['n'],1,right,['0'],6,0.183935,0.4,0,AccFast,1,18,Woman,Right,NA,1,TRUE,TRUE,TRUE,TRUE
21,13,1,1.4993896,['n'],1,right,['0'],6,0.1506359,0.4,0,AccFast,1,18,Woman,Right,NA,1,TRUE,TRUE,TRUE,TRUE
22,13,1,1.1162825,['n'],1,right,['9'],5,0.400531,0.2,0,AccFast,1,18,Woman,Right,NA,1,TRUE,TRUE,TRUE,TRUE
23,13,1,1.0496707,['n'],1,right,['9'],5,0.2338932,0.1,0,AccFast,1,18,Woman,Right,NA,1,TRUE,TRUE,TRUE,TRUE
24,13,1,0.9168295,['n'],1,right,['8'],4,0.6671643,0.2,0,AccFast,1,18,Woman,Right,NA,1,TRUE,TRUE,TRUE,TRUE
25,13,1,1.2161089,['c'],1,left,['0'],6,0.5170493,0.2,0,AccFast,1,18,Woman,Right,NA,1,TRUE,TRUE,TRUE,TRUE
26,13,1,0.683606,['c'],1,left,['0'],6,0.1339844,0.2,0,AccFast,1,18,Woman,Right,NA,1,TRUE,TRUE,TRUE,TRUE
27,13,1,0.7996133,['n'],1,right,['0'],6,0.1837572,0.4,0,AccFast,1,18,Woman,Right,NA,1,TRUE,TRUE,TRUE,TRUE
28,13,1,0.6989851,['n'],1,right,['0'],6,0.1504907,0.4,0,AccFast,1,18,Woman,Right,NA,1,TRUE,TRUE,TRUE,TRUE
29,13,1,0.9330639,['n'],1,right,['0'],6,0.2005192,0.2,0,AccFast,1,18,Woman,Right,NA,1,TRUE,TRUE,TRUE,TRUE
30,13,1,0.8329915,['n'],1,right,['0'],6,0.1839145,0.2,0,AccFast,1,18,Woman,Right,NA,1,TRUE,TRUE,TRUE,TRUE
31,13,1,0.6503183,['c'],1,left,['0'],6,0.2005491,0.4,0,AccFast,1,18,Woman,Right,NA,1,TRUE,TRUE,TRUE,TRUE
32,13,1,0.9995058,['n'],1,right,['0'],6,0.167159,0.4,0,AccFast,1,18,Woman,Right,NA,1,TRUE,TRUE,TRUE,TRUE
33,13,1,0.5496157,['c'],1,left,['0'],6,0.1671547,0.2,0,AccFast,1,18,Woman,Right,NA,1,TRUE,TRUE,TRUE,TRUE
34,13,1,0.7162793,['n'],1,right,['0'],6,0.2006573,0.2,0,AccFast,1,18,Woman,Right,NA,1,TRUE,TRUE,TRUE,TRUE
35,13,1,1.5996136,['c'],1,left,['0'],6,0.1338596,0.1,0,AccFast,1,18,Woman,Right,NA,1,TRUE,TRUE,TRUE,TRUE
36,13,1,0.7995147,['n'],1,right,['0'],6,0.2337913,0.4,0,AccFast,1,18,Woman,Right,NA,1,TRUE,TRUE,TRUE,TRUE
37,13,1,0.7663639,['n'],1,right,['0'],6,0.1505095,0.2,0,AccFast,1,18,Woman,Right,NA,1,TRUE,TRUE,TRUE,TRUE
38,13,1,1.149328,['n'],1,right,['9'],5,0.26706,0.1,0,AccFast,1,18,Woman,Right,NA,1,TRUE,TRUE,TRUE,TRUE
39,13,1,0.9826747,['c'],1,left,['9'],5,0.3172161,0.2,0,AccFast,1,18,Woman,Right,NA,1,TRUE,TRUE,TRUE,TRUE
40,13,1,0.9329228,['n'],1,right,['0'],6,0.2168669,0.1,0,AccFast,1,18,Woman,Right,NA,1,TRUE,TRUE,TRUE,TRUE
41,13,1,2.0161408,['n'],0,left,['2'],2,0.4337598,0.1,0,AccFast,1,18,Woman,Right,NA,1,TRUE,TRUE,TRUE,TRUE
42,13,1,1.4827004,['n'],1,right,['9'],5,0.3672489,0.1,0,AccFast,1,18,Woman,Right,NA,1,TRUE,TRUE,TRUE,TRUE
43,13,1,0.7333999,['c'],1,left,['0'],6,0.2004679,0.4,0,AccFast,1,18,Woman,Right,NA,1,TRUE,TRUE,TRUE,TRUE
44,13,1,1.0662984,['n'],0,left,['0'],6,0.1506718,0.1,0,AccFast,1,18,Woman,Right,NA,1,TRUE,TRUE,TRUE,TRUE
45,13,1,0.6499274,['c'],1,left,['0'],6,0.1838821,0.4,0,AccFast,1,18,Woman,Right,NA,1,TRUE,TRUE,TRUE,TRUE
46,13,1,1.3162957,['c'],1,left,['0'],6,0.3339037,0.4,0,AccFast,1,18,Woman,Right,NA,1,TRUE,TRUE,TRUE,TRUE
47,13,1,1.8496009,['n'],0,left,['3'],3,1.1005907,0.2,0,AccFast,1,18,Woman,Right,NA,1,TRUE,TRUE,TRUE,TRUE
48,13,1,0.7501588,['c'],1,left,['8'],4,0.650449,0.2,0,AccFast,1,18,Woman,Right,NA,1,TRUE,TRUE,TRUE,TRUE
49,13,1,0.6661557,['c'],1,left,['0'],6,0.5338366,0.4,0,AccFast,1,18,Woman,Right,NA,1,TRUE,TRUE,TRUE,TRUE
50,13,1,0.7997738,['n'],1,right,['0'],6,0.1504654,0.2,0,AccFast,1,18,Woman,Right,NA,1,TRUE,TRUE,TRUE,TRUE
51,13,1,1.3162577,['c'],1,left,['9'],5,0.8339153,0.2,0,AccFast,1,18,Woman,Right,NA,1,TRUE,TRUE,TRUE,TRUE
52,13,1,0.7495271,['c'],1,left,['0'],6,0.1837723,0.4,0,AccFast,1,18,Woman,Right,NA,1,TRUE,TRUE,TRUE,TRUE
53,13,1,0.7503025,['n'],1,right,['9'],5,0.8338802,0.1,0,AccFast,1,18,Woman,Right,NA,1,TRUE,TRUE,TRUE,TRUE
54,13,1,0.8494075,['n'],1,right,['9'],5,0.3340215,0.2,0,AccFast,1,18,Woman,Right,NA,1,TRUE,TRUE,TRUE,TRUE
55,13,1,0.7328655,['c'],1,left,['0'],6,0.1671745,0.1,0,AccFast,1,18,Woman,Right,NA,1,TRUE,TRUE,TRUE,TRUE
56,13,1,0.6828894,['c'],1,left,['0'],6,0.1672381,0.4,0,AccFast,1,18,Woman,Right,NA,1,TRUE,TRUE,TRUE,TRUE
57,13,1,1.4500545,['n'],1,right,['8'],4,0.583794,0.1,0,AccFast,1,18,Woman,Right,NA,1,TRUE,TRUE,TRUE,TRUE
58,13,1,1.2995263,['c'],1,left,['9'],5,0.2837324,0.2,0,AccFast,1,18,Woman,Right,NA,1,TRUE,TRUE,TRUE,TRUE
59,13,1,1.6662697,['n'],1,right,['9'],5,0.7838467,0.1,0,AccFast,1,18,Woman,Right,NA,1,TRUE,TRUE,TRUE,TRUE
0,14,1,1.2497463,['c'],1,left,['3'],3,1.2340191,0.1,0,AccAcc,1,18,Woman,Right,NA,1,TRUE,TRUE,TRUE,TRUE
1,14,1,1.183613,['n'],1,right,['9'],5,0.5509262,0.1,0,AccAcc,1,18,Woman,Right,NA,1,TRUE,TRUE,TRUE,TRUE
2,14,1,1.1664813,['c'],1,left,['9'],5,0.4505443,0.2,0,AccAcc,1,18,Woman,Right,NA,1,TRUE,TRUE,TRUE,TRUE
3,14,1,2.1329254,['c'],1,left,['2'],2,0.5836716,0.2,0,AccAcc,1,18,Woman,Right,NA,1,TRUE,TRUE,TRUE,TRUE
4,14,1,1.0825856,['n'],1,right,['0'],6,0.6340502,0.1,0,AccAcc,1,18,Woman,Right,NA,1,TRUE,TRUE,TRUE,TRUE
5,14,1,2.8336701,['n'],1,right,['0'],6,0.7673828,0.2,0,AccAcc,1,18,Woman,Right,NA,1,TRUE,TRUE,TRUE,TRUE
6,14,1,2.9662821,['c'],1,left,['1'],1,0.4836831,0.1,0,AccAcc,1,18,Woman,Right,NA,1,TRUE,TRUE,TRUE,TRUE
7,14,1,1.1156948,['c'],1,left,['0'],6,0.5671459,0.4,0,AccAcc,1,18,Woman,Right,NA,1,TRUE,TRUE,TRUE,TRUE
8,14,1,1.1657391,['c'],1,left,['9'],5,0.5505615,0.2,0,AccAcc,1,18,Woman,Right,NA,1,TRUE,TRUE,TRUE,TRUE
9,14,1,1.2827592,['n'],1,right,['0'],6,0.3671258,0.1,0,AccAcc,1,18,Woman,Right,NA,1,TRUE,TRUE,TRUE,TRUE
10,14,1,1.4337029,['c'],1,left,['0'],6,0.4838137,0.2,0,AccAcc,1,18,Woman,Right,NA,1,TRUE,TRUE,TRUE,TRUE
11,14,1,0.884097,['c'],1,left,['0'],6,0.2505343,0.2,0,AccAcc,1,18,Woman,Right,NA,1,TRUE,TRUE,TRUE,TRUE
12,14,1,1.3163648,['n'],1,right,['0'],6,0.2504334,0.1,0,AccAcc,1,18,Woman,Right,NA,1,TRUE,TRUE,TRUE,TRUE
13,14,1,0.7494719,['n'],1,right,['0'],6,0.2337593,0.4,0,AccAcc,1,18,Woman,Right,NA,1,TRUE,TRUE,TRUE,TRUE
14,14,1,0.6496285,['c'],1,left,['0'],6,0.2005933,0.4,0,AccAcc,1,18,Woman,Right,NA,1,TRUE,TRUE,TRUE,TRUE
15,14,1,1.2663672,['c'],1,left,['0'],6,0.4505237,0.2,0,AccAcc,1,18,Woman,Right,NA,1,TRUE,TRUE,TRUE,TRUE
16,14,1,0.8328703,['c'],1,left,['0'],6,0.2671401,0.1,0,AccAcc,1,18,Woman,Right,NA,1,TRUE,TRUE,TRUE,TRUE
17,14,1,0.6995471,['c'],1,left,['0'],6,0.2501619,0.2,0,AccAcc,1,18,Woman,Right,NA,1,TRUE,TRUE,TRUE,TRUE
18,14,1,0.6663729,['c'],1,left,['0'],6,0.333833,0.1,0,AccAcc,1,18,Woman,Right,NA,1,TRUE,TRUE,TRUE,TRUE
19,14,1,0.7324589,['n'],1,right,['0'],6,0.2506555,0.4,0,AccAcc,1,18,Woman,Right,NA,1,TRUE,TRUE,TRUE,TRUE
20,14,1,0.7163668,['c'],1,left,['0'],6,0.3837796,0.2,0,AccAcc,1,18,Woman,Right,NA,1,TRUE,TRUE,TRUE,TRUE
21,14,1,0.4996464,['c'],1,left,['0'],6,0.2504549,0.4,0,AccAcc,1,18,Woman,Right,NA,1,TRUE,TRUE,TRUE,TRUE
22,14,1,0.8665073,['n'],1,right,['0'],6,0.2670953,0.4,0,AccAcc,1,18,Woman,Right,NA,1,TRUE,TRUE,TRUE,TRUE
23,14,1,1.0661967,['n'],1,right,['0'],6,0.4337103,0.2,0,AccAcc,1,18,Woman,Right,NA,1,TRUE,TRUE,TRUE,TRUE
24,14,1,1.1994326,['c'],1,left,['0'],6,0.4339792,0.1,0,AccAcc,1,18,Woman,Right,NA,1,TRUE,TRUE,TRUE,TRUE
25,14,1,0.8161082,['c'],1,left,['0'],6,0.4673035,0.4,0,AccAcc,1,18,Woman,Right,NA,1,TRUE,TRUE,TRUE,TRUE
26,14,1,1.1667933,['n'],1,right,['0'],6,0.4338632,0.2,0,AccAcc,1,18,Woman,Right,NA,1,TRUE,TRUE,TRUE,TRUE
27,14,1,1.7496861,['c'],1,left,['2'],2,0.9005589,0.1,0,AccAcc,1,18,Woman,Right,NA,1,TRUE,TRUE,TRUE,TRUE
28,14,1,0.91635,['n'],1,right,['9'],5,0.9330779,0.4,0,AccAcc,1,18,Woman,Right,NA,1,TRUE,TRUE,TRUE,TRUE
29,14,1,0.6338572,['c'],1,left,['0'],6,0.2672356,0.4,0,AccAcc,1,18,Woman,Right,NA,1,TRUE,TRUE,TRUE,TRUE
30,14,1,0.9332003,['n'],1,right,['0'],6,0.3839218,0.2,0,AccAcc,1,18,Woman,Right,NA,1,TRUE,TRUE,TRUE,TRUE
31,14,1,1.8996384,['n'],1,right,['8'],4,0.500613,0.1,0,AccAcc,1,18,Woman,Right,NA,1,TRUE,TRUE,TRUE,TRUE
32,14,1,1.3325424,['n'],1,right,['8'],4,0.6837113,0.2,0,AccAcc,1,18,Woman,Right,NA,1,TRUE,TRUE,TRUE,TRUE
33,14,1,1.134696,['c'],1,left,['8'],4,0.5336288,0.1,0,AccAcc,1,18,Woman,Right,NA,1,TRUE,TRUE,TRUE,TRUE
34,14,1,1.2163672,['n'],1,right,['0'],6,0.283799,0.2,0,AccAcc,1,18,Woman,Right,NA,1,TRUE,TRUE,TRUE,TRUE
35,14,1,1.8162663,['c'],0,right,['2'],2,0.4837952,0.1,0,AccAcc,1,18,Woman,Right,NA,1,TRUE,TRUE,TRUE,TRUE
36,14,1,2.0665148,['c'],1,left,['2'],2,0.5671195,0.1,0,AccAcc,1,18,Woman,Right,NA,1,TRUE,TRUE,TRUE,TRUE
37,14,1,1.0828761,['c'],1,left,['0'],6,0.3670943,0.4,0,AccAcc,1,18,Woman,Right,NA,1,TRUE,TRUE,TRUE,TRUE
38,14,1,0.5664222,['c'],1,left,['0'],6,0.183727,0.4,0,AccAcc,1,18,Woman,Right,NA,1,TRUE,TRUE,TRUE,TRUE
39,14,1,1.9999105,['n'],0,left,['2'],2,0.4173654,0.1,0,AccAcc,1,18,Woman,Right,NA,1,TRUE,TRUE,TRUE,TRUE
40,14,1,1.5332006,['c'],1,left,['0'],6,0.3005209,0.4,0,AccAcc,1,18,Woman,Right,NA,1,TRUE,TRUE,TRUE,TRUE
41,14,1,2.3501296,['n'],1,right,['0'],6,0.3004288,0.2,0,AccAcc,1,18,Woman,Right,NA,1,TRUE,TRUE,TRUE,TRUE
42,14,1,1.0660908,['n'],1,right,['0'],6,0.350452,0.4,0,AccAcc,1,18,Woman,Right,NA,1,TRUE,TRUE,TRUE,TRUE
43,14,1,1.2332115,['n'],1,right,['9'],5,0.4505908,0.2,0,AccAcc,1,18,Woman,Right,NA,1,TRUE,TRUE,TRUE,TRUE
44,14,1,2.1329959,['n'],1,right,['9'],5,0.8171648,0.4,0,AccAcc,1,18,Woman,Right,NA,1,TRUE,TRUE,TRUE,TRUE
45,14,1,0.9496111,['c'],1,left,['0'],6,0.6839528,0.4,0,AccAcc,1,18,Woman,Right,NA,1,TRUE,TRUE,TRUE,TRUE
46,14,1,0.8496262,['n'],1,right,['0'],6,0.4840583,0.2,0,AccAcc,1,18,Woman,Right,NA,1,TRUE,TRUE,TRUE,TRUE
47,14,1,0.7991802,['n'],1,right,['0'],6,0.550489,0.2,0,AccAcc,1,18,Woman,Right,NA,1,TRUE,TRUE,TRUE,TRUE
48,14,1,1.2996394,['c'],1,left,['0'],6,0.267104,0.1,0,AccAcc,1,18,Woman,Right,NA,1,TRUE,TRUE,TRUE,TRUE
49,14,1,0.8662289,['n'],1,right,['0'],6,0.4172329,0.4,0,AccAcc,1,18,Woman,Right,NA,1,TRUE,TRUE,TRUE,TRUE
50,14,1,0.7500187,['n'],1,right,['0'],6,0.383738,0.4,0,AccAcc,1,18,Woman,Right,NA,1,TRUE,TRUE,TRUE,TRUE
51,14,1,1.6998046,['c'],0,right,['2'],2,0.3339843,0.1,0,AccAcc,1,18,Woman,Right,NA,1,TRUE,TRUE,TRUE,TRUE
52,14,1,1.2160484,['n'],1,right,['0'],6,0.7341495,0.4,0,AccAcc,1,18,Woman,Right,NA,1,TRUE,TRUE,TRUE,TRUE
53,14,1,1.7998996,['c'],1,left,['0'],6,0.5171889,0.2,0,AccAcc,1,18,Woman,Right,NA,1,TRUE,TRUE,TRUE,TRUE
54,14,1,1.5662722,['c'],1,left,['8'],4,0.8171992,0.4,0,AccAcc,1,18,Woman,Right,NA,1,TRUE,TRUE,TRUE,TRUE
55,14,1,1.6662011,['n'],1,right,['8'],4,0.4837977,0.1,0,AccAcc,1,18,Woman,Right,NA,1,TRUE,TRUE,TRUE,TRUE
56,14,1,0.7495816,['c'],1,left,['9'],5,0.4172398,0.2,0,AccAcc,1,18,Woman,Right,NA,1,TRUE,TRUE,TRUE,TRUE
57,14,1,1.0496068,['n'],1,right,['0'],6,0.4840694,0.4,0,AccAcc,1,18,Woman,Right,NA,1,TRUE,TRUE,TRUE,TRUE
58,14,1,1.1161099,['c'],0,right,['8'],4,0.9004339,0.1,0,AccAcc,1,18,Woman,Right,NA,1,TRUE,TRUE,TRUE,TRUE
59,14,1,0.966055,['n'],1,right,['8'],4,0.6171573,0.1,0,AccAcc,1,18,Woman,Right,NA,1,TRUE,TRUE,TRUE,TRUE
0,15,1,2.2161532,['c'],1,left,['0'],6,1.0840994,0.2,0,FastAcc,1,18,Woman,Right,NA,1,TRUE,TRUE,TRUE,TRUE
1,15,1,1.0000018,['c'],0,right,['2'],2,0.5339552,0.1,0,FastAcc,1,18,Woman,Right,NA,1,TRUE,TRUE,TRUE,TRUE
2,15,1,1.2992684,['c'],0,right,['2'],2,0.4836573,0.1,0,FastAcc,1,18,Woman,Right,NA,1,TRUE,TRUE,TRUE,TRUE
3,15,1,0.5994342,['c'],1,left,['2'],2,0.7838788,0.1,0,FastAcc,1,18,Woman,Right,NA,1,TRUE,TRUE,TRUE,TRUE
4,15,1,0.5826355,['n'],1,right,['9'],5,1.6007407,0.2,0,FastAcc,1,18,Woman,Right,NA,1,TRUE,TRUE,TRUE,TRUE
5,15,1,0.9998441,['n'],1,right,['0'],6,0.2837529,0.1,0,FastAcc,1,18,Woman,Right,NA,1,TRUE,TRUE,TRUE,TRUE
6,15,1,1.7329444,['n'],1,right,['9'],5,0.3671256,0.2,0,FastAcc,1,18,Woman,Right,NA,1,TRUE,TRUE,TRUE,TRUE
7,15,1,0.7995694,['n'],1,right,['9'],5,0.2838945,0.4,0,FastAcc,1,18,Woman,Right,NA,1,TRUE,TRUE,TRUE,TRUE
8,15,1,0.7164512,['c'],1,left,['9'],5,0.2504284,0.1,0,FastAcc,1,18,Woman,Right,NA,1,TRUE,TRUE,TRUE,TRUE
9,15,1,0.9667348,['n'],1,right,['9'],5,0.2673915,0.1,0,FastAcc,1,18,Woman,Right,NA,1,TRUE,TRUE,TRUE,TRUE
10,15,1,1.5491142,['n'],1,right,['0'],6,0.400535,0.2,0,FastAcc,1,18,Woman,Right,NA,1,TRUE,TRUE,TRUE,TRUE
11,15,1,0.7992675,['c'],1,left,['0'],6,0.250604,0.2,0,FastAcc,1,18,Woman,Right,NA,1,TRUE,TRUE,TRUE,TRUE
12,15,1,0.8996169,['c'],1,left,['0'],6,0.1506067,0.2,0,FastAcc,1,18,Woman,Right,NA,1,TRUE,TRUE,TRUE,TRUE
13,15,1,0.7995813,['c'],1,left,['0'],6,0.0841462,0.4,0,FastAcc,1,18,Woman,Right,NA,1,TRUE,TRUE,TRUE,TRUE
14,15,1,0.68333,['c'],1,left,['0'],6,0.1504956,0.1,0,FastAcc,1,18,Woman,Right,NA,1,TRUE,TRUE,TRUE,TRUE
15,15,1,0.7662377,['n'],1,right,['0'],6,0.1836491,0.2,0,FastAcc,1,18,Woman,Right,NA,1,TRUE,TRUE,TRUE,TRUE
16,15,1,0.5317893,['c'],1,left,['0'],6,0.1505539,0.2,0,FastAcc,1,18,Woman,Right,NA,1,TRUE,TRUE,TRUE,TRUE
17,15,1,1.6494409,['c'],0,right,['9'],5,0.217147,0.2,0,FastAcc,1,18,Woman,Right,NA,1,TRUE,TRUE,TRUE,TRUE
18,15,1,0.7327168,['c'],1,left,['0'],6,0.2671721,0.4,0,FastAcc,1,18,Woman,Right,NA,1,TRUE,TRUE,TRUE,TRUE
19,15,1,1.4498397,['n'],1,right,['2'],2,0.7171639,0.1,0,FastAcc,1,18,Woman,Right,NA,1,TRUE,TRUE,TRUE,TRUE
20,15,1,1.1331979,['n'],1,right,['9'],5,0.6505164,0.2,0,FastAcc,1,18,Woman,Right,NA,1,TRUE,TRUE,TRUE,TRUE
21,15,1,1.1330366,['c'],0,right,['3'],3,0.7003697,0.1,0,FastAcc,1,18,Woman,Right,NA,1,TRUE,TRUE,TRUE,TRUE
22,15,1,1.0164219,['c'],1,left,['9'],5,0.5838601,0.1,0,FastAcc,1,18,Woman,Right,NA,1,TRUE,TRUE,TRUE,TRUE
23,15,1,1.1828811,['n'],1,right,['0'],6,0.2338299,0.4,0,FastAcc,1,18,Woman,Right,NA,1,TRUE,TRUE,TRUE,TRUE
24,15,1,0.8162972,['n'],1,right,['0'],6,0.2004368,0.4,0,FastAcc,1,18,Woman,Right,NA,1,TRUE,TRUE,TRUE,TRUE
25,15,1,0.9830096,['c'],1,left,['0'],6,0.2340101,0.1,0,FastAcc,1,18,Woman,Right,NA,1,TRUE,TRUE,TRUE,TRUE
26,15,1,1.4163172,['c'],1,left,['9'],5,0.4840171,0.2,0,FastAcc,1,18,Woman,Right,NA,1,TRUE,TRUE,TRUE,TRUE
27,15,1,1.06606,['n'],1,right,['0'],6,1.1505475,0.4,0,FastAcc,1,18,Woman,Right,NA,1,TRUE,TRUE,TRUE,TRUE
28,15,1,1.0666637,['c'],1,left,['0'],6,0.2335882,0.1,0,FastAcc,1,18,Woman,Right,NA,1,TRUE,TRUE,TRUE,TRUE
29,15,1,1.1160039,['n'],1,right,['0'],6,0.2006749,0.2,0,FastAcc,1,18,Woman,Right,NA,1,TRUE,TRUE,TRUE,TRUE
30,15,1,0.599619,['c'],1,left,['0'],6,0.2337411,0.2,0,FastAcc,1,18,Woman,Right,NA,1,TRUE,TRUE,TRUE,TRUE
31,15,1,0.7830673,['c'],1,left,['0'],6,0.2004981,0.4,0,FastAcc,1,18,Woman,Right,NA,1,TRUE,TRUE,TRUE,TRUE
32,15,1,0.6827504,['c'],1,left,['0'],6,0.25051,0.4,0,FastAcc,1,18,Woman,Right,NA,1,TRUE,TRUE,TRUE,TRUE
33,15,1,0.8835386,['c'],1,left,['0'],6,0.1505026,0.4,0,FastAcc,1,18,Woman,Right,NA,1,TRUE,TRUE,TRUE,TRUE
34,15,1,1.0158009,['n'],1,right,['0'],6,0.9337322,0.4,0,FastAcc,1,18,Woman,Right,NA,1,TRUE,TRUE,TRUE,TRUE
35,15,1,1.4495644,['c'],0,right,['2'],2,0.3671417,0.2,0,FastAcc,1,18,Woman,Right,NA,1,TRUE,TRUE,TRUE,TRUE
36,15,1,0.7496794,['c'],1,left,['0'],6,0.467261,0.2,0,FastAcc,1,18,Woman,Right,NA,1,TRUE,TRUE,TRUE,TRUE
37,15,1,0.6658279,['c'],1,left,['0'],6,0.3839167,0.4,0,FastAcc,1,18,Woman,Right,NA,1,TRUE,TRUE,TRUE,TRUE
38,15,1,0.5496111,['n'],1,right,['0'],6,0.4671829,0.4,0,FastAcc,1,18,Woman,Right,NA,1,TRUE,TRUE,TRUE,TRUE
39,15,1,0.4842496,['c'],1,left,['0'],6,0.5506788,0.4,0,FastAcc,1,18,Woman,Right,NA,1,TRUE,TRUE,TRUE,TRUE
40,15,1,0.5165043,['c'],1,left,['0'],6,0.1670377,0.2,0,FastAcc,1,18,Woman,Right,NA,1,TRUE,TRUE,TRUE,TRUE
41,15,1,0.5666496,['n'],1,right,['0'],6,0.450396,0.4,0,FastAcc,1,18,Woman,Right,NA,1,TRUE,TRUE,TRUE,TRUE
42,15,1,0.8670944,['n'],1,right,['0'],6,0.3002973,0.4,0,FastAcc,1,18,Woman,Right,NA,1,TRUE,TRUE,TRUE,TRUE
43,15,1,0.783571,['c'],1,left,['0'],6,0.4168595,0.2,0,FastAcc,1,18,Woman,Right,NA,1,TRUE,TRUE,TRUE,TRUE
44,15,1,0.6662348,['c'],1,left,['0'],6,0.2838209,0.4,0,FastAcc,1,18,Woman,Right,NA,1,TRUE,TRUE,TRUE,TRUE
45,15,1,1.3500037,['n'],1,right,['2'],2,0.5172699,0.1,0,FastAcc,1,18,Woman,Right,NA,1,TRUE,TRUE,TRUE,TRUE
46,15,1,0.5668174,['n'],1,right,['0'],6,0.4840493,0.4,0,FastAcc,1,18,Woman,Right,NA,1,TRUE,TRUE,TRUE,TRUE
47,15,1,1.2998749,['n'],1,right,['9'],5,0.6006424,0.4,0,FastAcc,1,18,Woman,Right,NA,1,TRUE,TRUE,TRUE,TRUE
48,15,1,1.2499432,['c'],0,right,['3'],3,1.0338312,0.1,0,FastAcc,1,18,Woman,Right,NA,1,TRUE,TRUE,TRUE,TRUE
49,15,1,0.9662267,['c'],1,left,['0'],6,0.2173296,0.4,0,FastAcc,1,18,Woman,Right,NA,1,TRUE,TRUE,TRUE,TRUE
50,15,1,1.4172837,['n'],0,left,['2'],2,0.9005023,0.1,0,FastAcc,1,18,Woman,Right,NA,1,TRUE,TRUE,TRUE,TRUE
51,15,1,1.183694,['c'],1,left,['8'],4,0.8005499,0.1,0,FastAcc,1,18,Woman,Right,NA,1,TRUE,TRUE,TRUE,TRUE
52,15,1,1.1172257,['n'],1,right,['0'],6,0.4504382,0.4,0,FastAcc,1,18,Woman,Right,NA,1,TRUE,TRUE,TRUE,TRUE
53,15,1,1.0834743,['c'],1,left,['9'],5,0.7339636,0.1,0,FastAcc,1,18,Woman,Right,NA,1,TRUE,TRUE,TRUE,TRUE
54,15,1,0.8667684,['n'],1,right,['9'],5,0.5839921,0.2,0,FastAcc,1,18,Woman,Right,NA,1,TRUE,TRUE,TRUE,TRUE
55,15,1,1.2333575,['c'],1,left,['9'],5,0.7005289,0.1,0,FastAcc,1,18,Woman,Right,NA,1,TRUE,TRUE,TRUE,TRUE
56,15,1,1.3659392,['n'],1,right,['0'],6,0.6171487,0.2,0,FastAcc,1,18,Woman,Right,NA,1,TRUE,TRUE,TRUE,TRUE
57,15,1,1.6326027,['c'],1,left,['1'],1,0.4505059,0.1,0,FastAcc,1,18,Woman,Right,NA,1,TRUE,TRUE,TRUE,TRUE
58,15,1,2.1498787,['n'],0,left,['2'],2,0.7171111,0.1,0,FastAcc,1,18,Woman,Right,NA,1,TRUE,TRUE,TRUE,TRUE
59,15,1,2.0831646,['c'],0,right,['1'],1,0.5672533,0.2,0,FastAcc,1,18,Woman,Right,NA,1,TRUE,TRUE,TRUE,TRUE
0,4,1,1.1502215,['n'],0,left,['9'],2,2.8841986,0.1,0,FastFast,2,17,Woman,Right,NA,16,TRUE,TRUE,TRUE,TRUE
1,4,1,1.2498683,['c'],1,left,['2'],5,1.2011331,0.1,0,FastFast,2,17,Woman,Right,NA,16,TRUE,TRUE,TRUE,TRUE
2,4,1,1.2832976,['c'],1,left,['2'],5,0.55058,0.4,0,FastFast,2,17,Woman,Right,NA,16,TRUE,TRUE,TRUE,TRUE
3,4,1,0.9002268,['n'],1,right,['9'],2,0.8006452,0.2,0,FastFast,2,17,Woman,Right,NA,16,TRUE,TRUE,TRUE,TRUE
4,4,1,1.0667709,['n'],1,right,['2'],5,0.6015857,0.4,0,FastFast,2,17,Woman,Right,NA,16,TRUE,TRUE,TRUE,TRUE
5,4,1,0.9665362,['c'],1,left,['3'],4,1.0338619,0.1,0,FastFast,2,17,Woman,Right,NA,16,TRUE,TRUE,TRUE,TRUE
6,4,1,0.9341819,['n'],1,right,['2'],5,1.4500659,0.2,0,FastFast,2,17,Woman,Right,NA,16,TRUE,TRUE,TRUE,TRUE
7,4,1,2.1008174,['c'],1,left,['3'],4,1.8839756,0.1,0,FastFast,2,17,Woman,Right,NA,16,TRUE,TRUE,TRUE,TRUE
8,4,1,1.4164898,['c'],1,left,['1'],6,0.8179185,0.4,0,FastFast,2,17,Woman,Right,NA,16,TRUE,TRUE,TRUE,TRUE
9,4,1,2.0171215,['c'],1,left,['3'],4,1.3171208,0.2,0,FastFast,2,17,Woman,Right,NA,16,TRUE,TRUE,TRUE,TRUE
10,4,1,2.2326634,['n'],0,left,['9'],2,1.4676488,0.1,0,FastFast,2,17,Woman,Right,NA,16,TRUE,TRUE,TRUE,TRUE
11,4,1,1.5834807,['n'],0,left,['9'],2,1.1171622,0.1,0,FastFast,2,17,Woman,Right,NA,16,TRUE,TRUE,TRUE,TRUE
12,4,1,1.532964,['n'],1,right,['1'],6,0.9009824,0.4,0,FastFast,2,17,Woman,Right,NA,16,TRUE,TRUE,TRUE,TRUE
13,4,1,1.3164586,['n'],1,right,['2'],5,1.083818,0.1,0,FastFast,2,17,Woman,Right,NA,16,TRUE,TRUE,TRUE,TRUE
14,4,1,1.0336326,['c'],1,left,['1'],6,0.5003655,0.4,0,FastFast,2,17,Woman,Right,NA,16,TRUE,TRUE,TRUE,TRUE
15,4,1,1.2345967,['n'],0,left,['9'],2,1.7169255,0.4,0,FastFast,2,17,Woman,Right,NA,16,TRUE,TRUE,TRUE,TRUE
16,4,1,0.7329199,['n'],1,right,['1'],6,1.1505998,0.2,0,FastFast,2,17,Woman,Right,NA,16,TRUE,TRUE,TRUE,TRUE
17,4,1,0.8993235,['n'],1,right,['1'],6,0.5009201,0.4,0,FastFast,2,17,Woman,Right,NA,16,TRUE,TRUE,TRUE,TRUE
18,4,1,0.7672603,['n'],1,right,['1'],6,0.8012313,0.4,0,FastFast,2,17,Woman,Right,NA,16,TRUE,TRUE,TRUE,TRUE
19,4,1,1.8005677,['n'],0,left,['9'],2,1.4673167,0.2,0,FastFast,2,17,Woman,Right,NA,16,TRUE,TRUE,TRUE,TRUE
20,4,1,1.4004436,['c'],1,left,['2'],5,1.3173617,0.2,0,FastFast,2,17,Woman,Right,NA,16,TRUE,TRUE,TRUE,TRUE
21,4,1,1.1663234,['n'],0,left,['9'],2,1.2666175,0.2,0,FastFast,2,17,Woman,Right,NA,16,TRUE,TRUE,TRUE,TRUE
22,4,1,0.6173182,['n'],1,right,['1'],6,0.7842765,0.2,0,FastFast,2,17,Woman,Right,NA,16,TRUE,TRUE,TRUE,TRUE
23,4,1,0.716937,['n'],1,right,['1'],6,0.5001462,0.4,0,FastFast,2,17,Woman,Right,NA,16,TRUE,TRUE,TRUE,TRUE
24,4,1,0.600014,['n'],1,right,['1'],6,0.4342011,0.4,0,FastFast,2,17,Woman,Right,NA,16,TRUE,TRUE,TRUE,TRUE
25,4,1,0.8667967,['c'],0,right,['3'],4,1.4341062,0.1,0,FastFast,2,17,Woman,Right,NA,16,TRUE,TRUE,TRUE,TRUE
26,4,1,0.6995897,['c'],1,left,['2'],5,0.7675164,0.4,0,FastFast,2,17,Woman,Right,NA,16,TRUE,TRUE,TRUE,TRUE
27,4,1,0.9335158,['n'],0,left,['9'],2,1.1840089,0.1,0,FastFast,2,17,Woman,Right,NA,16,TRUE,TRUE,TRUE,TRUE
28,4,1,0.7834645,['n'],1,right,['2'],5,0.8343907,0.1,0,FastFast,2,17,Woman,Right,NA,16,TRUE,TRUE,TRUE,TRUE
29,4,1,0.6832374,['n'],1,right,['2'],5,1.5173437,0.2,0,FastFast,2,17,Woman,Right,NA,16,TRUE,TRUE,TRUE,TRUE
30,4,1,0.7665511,['n'],1,right,['1'],6,0.5837892,0.4,0,FastFast,2,17,Woman,Right,NA,16,TRUE,TRUE,TRUE,TRUE
31,4,1,0.7835153,['n'],1,right,['9'],2,0.9338126,0.1,0,FastFast,2,17,Woman,Right,NA,16,TRUE,TRUE,TRUE,TRUE
32,4,1,0.7505761,['n'],1,right,['2'],5,0.7836223,0.2,0,FastFast,2,17,Woman,Right,NA,16,TRUE,TRUE,TRUE,TRUE
33,4,1,0.93388,['n'],0,left,['9'],2,0.6841013,0.1,0,FastFast,2,17,Woman,Right,NA,16,TRUE,TRUE,TRUE,TRUE
34,4,1,1.1499542,['n'],0,left,['9'],2,0.6840588,0.1,0,FastFast,2,17,Woman,Right,NA,16,TRUE,TRUE,TRUE,TRUE
35,4,1,1.0332575,['c'],1,left,['2'],5,1.4674117,0.2,0,FastFast,2,17,Woman,Right,NA,16,TRUE,TRUE,TRUE,TRUE
36,4,1,0.8179624,['c'],1,left,['9'],2,0.9510956,0.1,0,FastFast,2,17,Woman,Right,NA,16,TRUE,TRUE,TRUE,TRUE
37,4,1,0.9505201,['c'],1,left,['1'],6,0.6509634,0.4,0,FastFast,2,17,Woman,Right,NA,16,TRUE,TRUE,TRUE,TRUE
38,4,1,0.7500954,['n'],1,right,['1'],6,1.0508005,0.2,0,FastFast,2,17,Woman,Right,NA,16,TRUE,TRUE,TRUE,TRUE
39,4,1,0.6664592,['c'],1,left,['1'],6,0.7007756,0.4,0,FastFast,2,17,Woman,Right,NA,16,TRUE,TRUE,TRUE,TRUE
40,4,1,0.4831929,['n'],1,right,['1'],6,0.6159776,0.2,0,FastFast,2,17,Woman,Right,NA,16,TRUE,TRUE,TRUE,TRUE
41,4,1,0.666219,['c'],1,left,['9'],2,0.9173176,0.1,0,FastFast,2,17,Woman,Right,NA,16,TRUE,TRUE,TRUE,TRUE
42,4,1,0.8665239,['n'],1,right,['1'],6,0.9010059,0.1,0,FastFast,2,17,Woman,Right,NA,16,TRUE,TRUE,TRUE,TRUE
43,4,1,0.7168001,['n'],1,right,['1'],6,0.6171885,0.2,0,FastFast,2,17,Woman,Right,NA,16,TRUE,TRUE,TRUE,TRUE
44,4,1,0.9327922,['n'],1,right,['2'],5,1.117831,0.1,0,FastFast,2,17,Woman,Right,NA,16,TRUE,TRUE,TRUE,TRUE
45,4,1,1.0492818,['n'],1,right,['2'],5,0.6832816,0.2,0,FastFast,2,17,Woman,Right,NA,16,TRUE,TRUE,TRUE,TRUE
46,4,1,0.550743,['n'],1,right,['2'],5,0.6345635,0.2,0,FastFast,2,17,Woman,Right,NA,16,TRUE,TRUE,TRUE,TRUE
47,4,1,0.8332535,['n'],1,right,['2'],5,0.5175016,0.1,0,FastFast,2,17,Woman,Right,NA,16,TRUE,TRUE,TRUE,TRUE
48,4,1,0.8508701,['n'],0,left,['0'],1,1.1007226,0.2,0,FastFast,2,17,Woman,Right,NA,16,TRUE,TRUE,TRUE,TRUE
49,4,1,1.0993897,['n'],0,left,['0'],1,1.4174839,0.4,0,FastFast,2,17,Woman,Right,NA,16,TRUE,TRUE,TRUE,TRUE
50,4,1,1.1169527,['n'],1,right,['1'],6,0.6009668,0.4,0,FastFast,2,17,Woman,Right,NA,16,TRUE,TRUE,TRUE,TRUE
51,4,1,0.9337387,['n'],1,right,['1'],6,0.5176124,0.2,0,FastFast,2,17,Woman,Right,NA,16,TRUE,TRUE,TRUE,TRUE
52,4,1,0.6163519,['n'],1,right,['1'],6,0.4511132,0.4,0,FastFast,2,17,Woman,Right,NA,16,TRUE,TRUE,TRUE,TRUE
53,4,1,1.4836299,['n'],0,left,['0'],1,1.4175089,0.1,0,FastFast,2,17,Woman,Right,NA,16,TRUE,TRUE,TRUE,TRUE
54,4,1,0.7996882,['n'],1,right,['1'],6,0.5507556,0.2,0,FastFast,2,17,Woman,Right,NA,16,TRUE,TRUE,TRUE,TRUE
55,4,1,0.9170354,['n'],0,left,['0'],1,1.9346289,0.4,0,FastFast,2,17,Woman,Right,NA,16,TRUE,TRUE,TRUE,TRUE
56,4,1,0.6504068,['n'],1,right,['1'],6,0.601386,0.4,0,FastFast,2,17,Woman,Right,NA,16,TRUE,TRUE,TRUE,TRUE
57,4,1,0.9674098,['n'],0,left,['9'],2,0.9845879,0.1,0,FastFast,2,17,Woman,Right,NA,16,TRUE,TRUE,TRUE,TRUE
58,4,1,0.6336845,['c'],1,left,['1'],6,0.5838867,0.4,0,FastFast,2,17,Woman,Right,NA,16,TRUE,TRUE,TRUE,TRUE
59,4,1,1.0169267,['n'],0,left,['9'],2,1.6175429,0.2,0,FastFast,2,17,Woman,Right,NA,16,TRUE,TRUE,TRUE,TRUE
0,5,1,2.1834445,['n'],1,right,['1'],6,2.5674372,0.2,0,AccFast,2,17,Woman,Right,NA,16,TRUE,TRUE,TRUE,TRUE
2,5,1,1.216006,['c'],1,left,['1'],6,0.8344782,0.4,0,AccFast,2,17,Woman,Right,NA,16,TRUE,TRUE,TRUE,TRUE
3,5,1,2.4333419,['n'],0,left,['2'],5,1.5010232,0.2,0,AccFast,2,17,Woman,Right,NA,16,TRUE,TRUE,TRUE,TRUE
4,5,1,1.3669969,['n'],1,right,['1'],6,0.63393,0.2,0,AccFast,2,17,Woman,Right,NA,16,TRUE,TRUE,TRUE,TRUE
5,5,1,1.5830927,['n'],1,right,['1'],6,0.6999162,0.2,0,AccFast,2,17,Woman,Right,NA,16,TRUE,TRUE,TRUE,TRUE
6,5,1,3.0828884,['c'],0,right,['2'],5,1.8175057,0.1,0,AccFast,2,17,Woman,Right,NA,16,TRUE,TRUE,TRUE,TRUE
7,5,1,1.7494415,['n'],1,right,['2'],5,0.9172836,0.1,0,AccFast,2,17,Woman,Right,NA,16,TRUE,TRUE,TRUE,TRUE
8,5,1,3.5170632,['n'],0,left,['0'],1,2.4005539,0.2,0,AccFast,2,17,Woman,Right,NA,16,TRUE,TRUE,TRUE,TRUE
9,5,1,2.0510562,['c'],1,left,['1'],6,1.233639,0.2,0,AccFast,2,17,Woman,Right,NA,16,TRUE,TRUE,TRUE,TRUE
10,5,1,0.7991053,['n'],1,right,['1'],6,0.8005552,0.4,0,AccFast,2,17,Woman,Right,NA,16,TRUE,TRUE,TRUE,TRUE
11,5,1,3.1012349,['c'],1,left,['2'],5,0.9679087,0.2,0,AccFast,2,17,Woman,Right,NA,16,TRUE,TRUE,TRUE,TRUE
12,5,1,1.5170182,['c'],1,left,['1'],6,0.6677926,0.4,0,AccFast,2,17,Woman,Right,NA,16,TRUE,TRUE,TRUE,TRUE
13,5,1,0.6329481,['n'],1,right,['1'],6,0.5838684,0.4,0,AccFast,2,17,Woman,Right,NA,16,TRUE,TRUE,TRUE,TRUE
14,5,1,3.999674,['n'],1,right,['2'],5,0.8505601,0.1,0,AccFast,2,17,Woman,Right,NA,16,TRUE,TRUE,TRUE,TRUE
15,5,1,3.4994683,['c'],1,left,['2'],5,0.7841363,0.1,0,AccFast,2,17,Woman,Right,NA,16,TRUE,TRUE,TRUE,TRUE
16,5,1,1.2162488,['c'],1,left,['2'],5,1.1175434,0.2,0,AccFast,2,17,Woman,Right,NA,16,TRUE,TRUE,TRUE,TRUE
17,5,1,2.332566,['c'],1,left,['2'],5,0.6676384,0.1,0,AccFast,2,17,Woman,Right,NA,16,TRUE,TRUE,TRUE,TRUE
18,5,1,1.4995561,['c'],1,left,['2'],5,0.617475,0.1,0,AccFast,2,17,Woman,Right,NA,16,TRUE,TRUE,TRUE,TRUE
19,5,1,1.6012019,['n'],1,right,['1'],6,0.6497178,0.2,0,AccFast,2,17,Woman,Right,NA,16,TRUE,TRUE,TRUE,TRUE
20,5,1,0.7510616,['c'],1,left,['2'],5,0.984557,0.4,0,AccFast,2,17,Woman,Right,NA,16,TRUE,TRUE,TRUE,TRUE
21,5,1,3.7496329,['c'],1,left,['2'],5,0.7178397,0.1,0,AccFast,2,17,Woman,Right,NA,16,TRUE,TRUE,TRUE,TRUE
22,5,1,2.2829604,['n'],1,right,['2'],5,1.0675142,0.1,0,AccFast,2,17,Woman,Right,NA,16,TRUE,TRUE,TRUE,TRUE
23,5,1,0.733353,['n'],1,right,['1'],6,0.5839331,0.4,0,AccFast,2,17,Woman,Right,NA,16,TRUE,TRUE,TRUE,TRUE
24,5,1,0.6502191,['n'],1,right,['1'],6,0.4178056,0.4,0,AccFast,2,17,Woman,Right,NA,16,TRUE,TRUE,TRUE,TRUE
25,5,1,0.9659305,['n'],1,right,['1'],6,0.7509406,0.2,0,AccFast,2,17,Woman,Right,NA,16,TRUE,TRUE,TRUE,TRUE
26,5,1,0.6500599,['n'],1,right,['1'],6,0.5341918,0.2,0,AccFast,2,17,Woman,Right,NA,16,TRUE,TRUE,TRUE,TRUE
27,5,1,1.1671206,['n'],1,right,['1'],6,0.4826621,0.4,0,AccFast,2,17,Woman,Right,NA,16,TRUE,TRUE,TRUE,TRUE
28,5,1,0.7506392,['c'],1,left,['1'],6,0.60115,0.4,0,AccFast,2,17,Woman,Right,NA,16,TRUE,TRUE,TRUE,TRUE
29,5,1,2.5336662,['n'],1,right,['2'],5,0.8169097,0.1,0,AccFast,2,17,Woman,Right,NA,16,TRUE,TRUE,TRUE,TRUE
30,5,1,1.7001674,['n'],0,left,['2'],5,0.6000668,0.2,0,AccFast,2,17,Woman,Right,NA,16,TRUE,TRUE,TRUE,TRUE
31,5,1,2.3331218,['n'],0,left,['2'],5,0.7176873,0.1,0,AccFast,2,17,Woman,Right,NA,16,TRUE,TRUE,TRUE,TRUE
32,5,1,1.2337436,['n'],1,right,['2'],5,1.3346214,0.1,0,AccFast,2,17,Woman,Right,NA,16,TRUE,TRUE,TRUE,TRUE
33,5,1,0.9167622,['n'],1,right,['1'],6,0.5346507,0.4,0,AccFast,2,17,Woman,Right,NA,16,TRUE,TRUE,TRUE,TRUE
34,5,1,0.7333438,['n'],1,right,['2'],5,0.734067,0.2,0,AccFast,2,17,Woman,Right,NA,16,TRUE,TRUE,TRUE,TRUE
35,5,1,2.2997029,['n'],1,right,['2'],5,1.1509945,0.1,0,AccFast,2,17,Woman,Right,NA,16,TRUE,TRUE,TRUE,TRUE
36,5,1,0.6177862,['n'],1,right,['1'],6,0.7504796,0.4,0,AccFast,2,17,Woman,Right,NA,16,TRUE,TRUE,TRUE,TRUE
37,5,1,3.8500491,['n'],0,left,['2'],5,0.8511251,0.1,0,AccFast,2,17,Woman,Right,NA,16,TRUE,TRUE,TRUE,TRUE
38,5,1,0.9490666,['n'],1,right,['1'],6,0.5679112,0.4,0,AccFast,2,17,Woman,Right,NA,16,TRUE,TRUE,TRUE,TRUE
39,5,1,2.6826181,['c'],0,right,['2'],5,1.2344214,0.1,0,AccFast,2,17,Woman,Right,NA,16,TRUE,TRUE,TRUE,TRUE
40,5,1,0.6831546,['c'],1,left,['1'],6,0.6675701,0.4,0,AccFast,2,17,Woman,Right,NA,16,TRUE,TRUE,TRUE,TRUE
41,5,1,1.4502594,['c'],1,left,['1'],6,0.7342903,0.2,0,AccFast,2,17,Woman,Right,NA,16,TRUE,TRUE,TRUE,TRUE
42,5,1,0.7836404,['n'],1,right,['1'],6,0.4009124,0.4,0,AccFast,2,17,Woman,Right,NA,16,TRUE,TRUE,TRUE,TRUE
43,5,1,0.9178279,['c'],1,left,['1'],6,0.46742,0.1,0,AccFast,2,17,Woman,Right,NA,16,TRUE,TRUE,TRUE,TRUE
44,5,1,2.0165019,['c'],1,left,['1'],6,0.6177693,0.4,0,AccFast,2,17,Woman,Right,NA,16,TRUE,TRUE,TRUE,TRUE
45,5,1,0.9331522,['n'],1,right,['1'],6,0.6008752,0.2,0,AccFast,2,17,Woman,Right,NA,16,TRUE,TRUE,TRUE,TRUE
46,5,1,0.8164327,['c'],1,left,['1'],6,0.5002343,0.2,0,AccFast,2,17,Woman,Right,NA,16,TRUE,TRUE,TRUE,TRUE
47,5,1,3.1332058,['c'],1,left,['2'],5,1.0008053,0.1,0,AccFast,2,17,Woman,Right,NA,16,TRUE,TRUE,TRUE,TRUE
48,5,1,0.7516508,['c'],1,left,['1'],6,0.6343476,0.4,0,AccFast,2,17,Woman,Right,NA,16,TRUE,TRUE,TRUE,TRUE
49,5,1,2.8172547,['c'],1,left,['2'],5,1.0180156,0.2,0,AccFast,2,17,Woman,Right,NA,16,TRUE,TRUE,TRUE,TRUE
50,5,1,3.3501409,['n'],1,right,['2'],5,1.1676535,0.1,0,AccFast,2,17,Woman,Right,NA,16,TRUE,TRUE,TRUE,TRUE
51,5,1,1.66636,['c'],1,left,['2'],5,0.7169172,0.2,0,AccFast,2,17,Woman,Right,NA,16,TRUE,TRUE,TRUE,TRUE
52,5,1,0.9166805,['n'],1,right,['1'],6,0.8007146,0.2,0,AccFast,2,17,Woman,Right,NA,16,TRUE,TRUE,TRUE,TRUE
53,5,1,3.91641,['n'],0,left,['2'],5,1.000529,0.1,0,AccFast,2,17,Woman,Right,NA,16,TRUE,TRUE,TRUE,TRUE
54,5,1,3.1165247,['n'],1,right,['2'],5,1.5845176,0.1,0,AccFast,2,17,Woman,Right,NA,16,TRUE,TRUE,TRUE,TRUE
55,5,1,0.7668034,['n'],1,right,['1'],6,0.8174459,0.4,0,AccFast,2,17,Woman,Right,NA,16,TRUE,TRUE,TRUE,TRUE
56,5,1,1.315596,['c'],1,left,['2'],5,1.4005992,0.4,0,AccFast,2,17,Woman,Right,NA,16,TRUE,TRUE,TRUE,TRUE
57,5,1,4.8834569,['c'],1,left,['2'],5,1.1178659,0.2,0,AccFast,2,17,Woman,Right,NA,16,TRUE,TRUE,TRUE,TRUE
58,5,1,4.383306,['n'],0,left,['9'],2,1.7161712,0.4,0,AccFast,2,17,Woman,Right,NA,16,TRUE,TRUE,TRUE,TRUE
59,5,1,1.2503504,['c'],0,right,['1'],6,0.38454,0.4,0,AccFast,2,17,Woman,Right,NA,16,TRUE,TRUE,TRUE,TRUE
0,6,1,3.4823348,['c'],1,left,['3'],4,4.9665649,0.4,0,AccAcc,2,17,Woman,Right,NA,16,TRUE,TRUE,TRUE,TRUE
1,6,1,2.2501339,['n'],1,right,['2'],5,1.9340504,0.2,0,AccAcc,2,17,Woman,Right,NA,16,TRUE,TRUE,TRUE,TRUE
2,6,1,1.2171962,['n'],1,right,['1'],6,0.4008425,0.2,0,AccAcc,2,17,Woman,Right,NA,16,TRUE,TRUE,TRUE,TRUE
3,6,1,3.9334783,['n'],0,left,['3'],4,1.1177989,0.2,0,AccAcc,2,17,Woman,Right,NA,16,TRUE,TRUE,TRUE,TRUE
4,6,1,1.4154687,['n'],1,right,['1'],6,0.6343627,0.4,0,AccAcc,2,17,Woman,Right,NA,16,TRUE,TRUE,TRUE,TRUE
6,6,1,2.6333443,['c'],1,left,['2'],5,1.9344207,0.4,0,AccAcc,2,17,Woman,Right,NA,16,TRUE,TRUE,TRUE,TRUE
7,6,1,3.1335149,['n'],0,left,['2'],5,1.8508512,0.4,0,AccAcc,2,17,Woman,Right,NA,16,TRUE,TRUE,TRUE,TRUE
8,6,1,4.1345176,['n'],0,left,['9'],2,1.3007476,0.2,0,AccAcc,2,17,Woman,Right,NA,16,TRUE,TRUE,TRUE,TRUE
9,6,1,4.2666479,['c'],1,left,['3'],4,1.1512716,0.2,0,AccAcc,2,17,Woman,Right,NA,16,TRUE,TRUE,TRUE,TRUE
10,6,1,0.9663635,['n'],1,right,['1'],6,0.6679198,0.4,0,AccAcc,2,17,Woman,Right,NA,16,TRUE,TRUE,TRUE,TRUE
11,6,1,2.8168575,['n'],0,left,['3'],4,3.5179021,0.2,0,AccAcc,2,17,Woman,Right,NA,16,TRUE,TRUE,TRUE,TRUE
12,6,1,3.2501559,['n'],0,left,['3'],4,0.617315,0.2,0,AccAcc,2,17,Woman,Right,NA,16,TRUE,TRUE,TRUE,TRUE
13,6,1,2.2662135,['c'],1,left,['3'],4,0.9507857,0.4,0,AccAcc,2,17,Woman,Right,NA,16,TRUE,TRUE,TRUE,TRUE
14,6,1,1.3999877,['n'],1,right,['3'],4,1.7677685,0.2,0,AccAcc,2,17,Woman,Right,NA,16,TRUE,TRUE,TRUE,TRUE
15,6,1,2.6161955,['n'],1,right,['3'],4,1.4675479,0.1,0,AccAcc,2,17,Woman,Right,NA,16,TRUE,TRUE,TRUE,TRUE
16,6,1,1.2498933,['n'],1,right,['1'],6,0.618065,0.2,0,AccAcc,2,17,Woman,Right,NA,16,TRUE,TRUE,TRUE,TRUE
17,6,1,0.8333565,['n'],1,right,['1'],6,0.6678631,0.4,0,AccAcc,2,17,Woman,Right,NA,16,TRUE,TRUE,TRUE,TRUE
18,6,1,4.6994446,['n'],0,left,['0'],1,2.3674043,0.1,0,AccAcc,2,17,Woman,Right,NA,16,TRUE,TRUE,TRUE,TRUE
19,6,1,2.8674018,['n'],1,right,['2'],5,0.8504259,0.1,0,AccAcc,2,17,Woman,Right,NA,16,TRUE,TRUE,TRUE,TRUE
20,6,1,1.4663694,['n'],1,right,['1'],6,0.6341027,0.4,0,AccAcc,2,17,Woman,Right,NA,16,TRUE,TRUE,TRUE,TRUE
21,6,1,1.1343457,['c'],1,left,['1'],6,0.6174024,0.1,0,AccAcc,2,17,Woman,Right,NA,16,TRUE,TRUE,TRUE,TRUE
22,6,1,1.1162274,['n'],1,right,['1'],6,0.6013324,0.4,0,AccAcc,2,17,Woman,Right,NA,16,TRUE,TRUE,TRUE,TRUE
23,6,1,4.3001529,['c'],1,left,['9'],2,1.2171585,0.1,0,AccAcc,2,17,Woman,Right,NA,16,TRUE,TRUE,TRUE,TRUE
24,6,1,3.5663788,['c'],1,left,['9'],2,1.2006393,0.1,0,AccAcc,2,17,Woman,Right,NA,16,TRUE,TRUE,TRUE,TRUE
25,6,1,1.5166256,['n'],1,right,['2'],5,2.2346278,0.2,0,AccAcc,2,17,Woman,Right,NA,16,TRUE,TRUE,TRUE,TRUE
26,6,1,1.0494843,['n'],1,right,['1'],6,0.6510874,0.4,0,AccAcc,2,17,Woman,Right,NA,16,TRUE,TRUE,TRUE,TRUE
27,6,1,3.6326463,['n'],1,right,['2'],5,1.5170399,0.1,0,AccAcc,2,17,Woman,Right,NA,16,TRUE,TRUE,TRUE,TRUE
28,6,1,1.650711,['c'],1,left,['2'],5,0.6840863,0.4,0,AccAcc,2,17,Woman,Right,NA,16,TRUE,TRUE,TRUE,TRUE
29,6,1,1.7833297,['c'],1,left,['2'],5,0.782849,0.1,0,AccAcc,2,17,Woman,Right,NA,16,TRUE,TRUE,TRUE,TRUE
30,6,1,1.916956,['n'],1,right,['2'],5,1.7338623,0.4,0,AccAcc,2,17,Woman,Right,NA,16,TRUE,TRUE,TRUE,TRUE
31,6,1,4.2322097,['n'],1,right,['3'],4,2.0179618,0.1,0,AccAcc,2,17,Woman,Right,NA,16,TRUE,TRUE,TRUE,TRUE
33,6,1,4.0832124,['c'],1,left,['9'],2,2.8837136,0.4,0,AccAcc,2,17,Woman,Right,NA,16,TRUE,TRUE,TRUE,TRUE
34,6,1,3.9844013,['c'],1,left,['3'],4,1.1504624,0.2,0,AccAcc,2,17,Woman,Right,NA,16,TRUE,TRUE,TRUE,TRUE
35,6,1,2.8830638,['n'],0,left,['3'],4,1.5677694,0.1,0,AccAcc,2,17,Woman,Right,NA,16,TRUE,TRUE,TRUE,TRUE
36,6,1,1.8009862,['n'],1,right,['1'],6,0.8673301,0.2,0,AccAcc,2,17,Woman,Right,NA,16,TRUE,TRUE,TRUE,TRUE
37,6,1,1.6008315,['n'],1,right,['1'],6,0.6340667,0.4,0,AccAcc,2,17,Woman,Right,NA,16,TRUE,TRUE,TRUE,TRUE
38,6,1,1.1837087,['n'],1,right,['1'],6,0.7010964,0.2,0,AccAcc,2,17,Woman,Right,NA,16,TRUE,TRUE,TRUE,TRUE
39,6,1,2.6668416,['c'],1,left,['3'],4,1.6008984,0.1,0,AccAcc,2,17,Woman,Right,NA,16,TRUE,TRUE,TRUE,TRUE
40,6,1,0.7670685,['n'],1,right,['1'],6,0.6010948,0.4,0,AccAcc,2,17,Woman,Right,NA,16,TRUE,TRUE,TRUE,TRUE
41,6,1,0.6167572,['n'],1,right,['1'],6,0.6344485,0.4,0,AccAcc,2,17,Woman,Right,NA,16,TRUE,TRUE,TRUE,TRUE
42,6,1,4.6994659,['n'],1,right,['8'],3,1.534454,0.1,0,AccAcc,2,17,Woman,Right,NA,16,TRUE,TRUE,TRUE,TRUE
43,6,1,1.7996067,['n'],1,right,['2'],5,0.7506174,0.2,0,AccAcc,2,17,Woman,Right,NA,16,TRUE,TRUE,TRUE,TRUE
44,6,1,3.7833177,['c'],1,left,['8'],3,1.2841883,0.2,0,AccAcc,2,17,Woman,Right,NA,16,TRUE,TRUE,TRUE,TRUE
46,6,1,2.0659643,['c'],1,left,['2'],5,0.8005501,0.1,0,AccAcc,2,17,Woman,Right,NA,16,TRUE,TRUE,TRUE,TRUE
47,6,1,2.3666837,['c'],1,left,['3'],4,1.784301,0.4,0,AccAcc,2,17,Woman,Right,NA,16,TRUE,TRUE,TRUE,TRUE
48,6,1,2.9330753,['c'],1,left,['3'],4,1.5843948,0.2,0,AccAcc,2,17,Woman,Right,NA,16,TRUE,TRUE,TRUE,TRUE
49,6,1,1.7495018,['n'],1,right,['2'],5,0.850645,0.1,0,AccAcc,2,17,Woman,Right,NA,16,TRUE,TRUE,TRUE,TRUE
50,6,1,0.5831536,['n'],1,right,['1'],6,0.5675743,0.4,0,AccAcc,2,17,Woman,Right,NA,16,TRUE,TRUE,TRUE,TRUE
51,6,1,3.1005731,['c'],1,left,['8'],3,1.2340954,0.1,0,AccAcc,2,17,Woman,Right,NA,16,TRUE,TRUE,TRUE,TRUE
52,6,1,4.4166525,['c'],1,left,['3'],4,0.9015567,0.1,0,AccAcc,2,17,Woman,Right,NA,16,TRUE,TRUE,TRUE,TRUE
53,6,1,0.8326497,['n'],1,right,['2'],5,1.1341904,0.2,0,AccAcc,2,17,Woman,Right,NA,16,TRUE,TRUE,TRUE,TRUE
54,6,1,2.4675182,['n'],0,left,['3'],4,2.550235,0.1,0,AccAcc,2,17,Woman,Right,NA,16,TRUE,TRUE,TRUE,TRUE
55,6,1,0.6838253,['n'],1,right,['2'],5,0.6509861,0.1,0,AccAcc,2,17,Woman,Right,NA,16,TRUE,TRUE,TRUE,TRUE
56,6,1,0.716844,['n'],1,right,['1'],6,0.6347163,0.4,0,AccAcc,2,17,Woman,Right,NA,16,TRUE,TRUE,TRUE,TRUE
57,6,1,1.7668721,['c'],1,left,['1'],6,0.9010925,0.2,0,AccAcc,2,17,Woman,Right,NA,16,TRUE,TRUE,TRUE,TRUE
58,6,1,3.4168145,['c'],1,left,['8'],3,1.4011099,0.2,0,AccAcc,2,17,Woman,Right,NA,16,TRUE,TRUE,TRUE,TRUE
59,6,1,0.7169633,['n'],1,right,['1'],6,0.5841496,0.4,0,AccAcc,2,17,Woman,Right,NA,16,TRUE,TRUE,TRUE,TRUE
0,7,1,0.5679769,['c'],1,left,['2'],5,1.8004829,0.4,0,FastAcc,2,17,Woman,Right,NA,16,TRUE,TRUE,TRUE,TRUE
1,7,1,0.650145,['n'],0,left,['9'],2,2.7170798,0.2,0,FastAcc,2,17,Woman,Right,NA,16,TRUE,TRUE,TRUE,TRUE
2,7,1,0.5336836,['n'],1,right,['1'],6,0.617305,0.4,0,FastAcc,2,17,Woman,Right,NA,16,TRUE,TRUE,TRUE,TRUE
3,7,1,0.534283,['n'],1,right,['1'],6,0.6005824,0.4,0,FastAcc,2,17,Woman,Right,NA,16,TRUE,TRUE,TRUE,TRUE
4,7,1,2.3988173,['c'],1,left,['8'],3,2.750643,0.1,0,FastAcc,2,17,Woman,Right,NA,16,TRUE,TRUE,TRUE,TRUE
5,7,1,1.0503615,['c'],1,left,['9'],2,2.1512326,0.2,0,FastAcc,2,17,Woman,Right,NA,16,TRUE,TRUE,TRUE,TRUE
6,7,1,0.7007019,['n'],0,left,['3'],4,4.5669228,0.1,0,FastAcc,2,17,Woman,Right,NA,16,TRUE,TRUE,TRUE,TRUE
7,7,1,1.9839784,['c'],1,left,['9'],2,1.5345633,0.2,0,FastAcc,2,17,Woman,Right,NA,16,TRUE,TRUE,TRUE,TRUE
8,7,1,0.5654332,['c'],1,left,['1'],6,0.9343842,0.4,0,FastAcc,2,17,Woman,Right,NA,16,TRUE,TRUE,TRUE,TRUE
9,7,1,0.4997397,['n'],1,right,['1'],6,0.5834558,0.4,0,FastAcc,2,17,Woman,Right,NA,16,TRUE,TRUE,TRUE,TRUE
10,7,1,1.1840493,['c'],1,left,['3'],4,1.4174012,0.1,0,FastAcc,2,17,Woman,Right,NA,16,TRUE,TRUE,TRUE,TRUE
11,7,1,0.5328896,['n'],1,right,['1'],6,0.651252,0.2,0,FastAcc,2,17,Woman,Right,NA,16,TRUE,TRUE,TRUE,TRUE
12,7,1,1.3498123,['c'],1,left,['9'],2,2.6836006,0.2,0,FastAcc,2,17,Woman,Right,NA,16,TRUE,TRUE,TRUE,TRUE
13,7,1,0.4505611,['n'],1,right,['2'],5,1.3673907,0.2,0,FastAcc,2,17,Woman,Right,NA,16,TRUE,TRUE,TRUE,TRUE
14,7,1,0.8500669,['n'],1,right,['3'],4,1.4336165,0.1,0,FastAcc,2,17,Woman,Right,NA,16,TRUE,TRUE,TRUE,TRUE
15,7,1,0.4837802,['c'],0,right,['0'],1,1.3338715,0.4,0,FastAcc,2,17,Woman,Right,NA,16,TRUE,TRUE,TRUE,TRUE
16,7,1,1.3329016,['n'],0,left,['9'],2,1.3346262,0.1,0,FastAcc,2,17,Woman,Right,NA,16,TRUE,TRUE,TRUE,TRUE
17,7,1,0.5503011,['n'],1,right,['1'],6,0.6844218,0.4,0,FastAcc,2,17,Woman,Right,NA,16,TRUE,TRUE,TRUE,TRUE
18,7,1,1.0502918,['n'],1,right,['2'],5,2.3343211,0.1,0,FastAcc,2,17,Woman,Right,NA,16,TRUE,TRUE,TRUE,TRUE
19,7,1,1.1674172,['n'],1,right,['8'],3,1.5503786,0.1,0,FastAcc,2,17,Woman,Right,NA,16,TRUE,TRUE,TRUE,TRUE
20,7,1,1.3329871,['c'],1,left,['3'],4,0.8843242,0.2,0,FastAcc,2,17,Woman,Right,NA,16,TRUE,TRUE,TRUE,TRUE
21,7,1,0.5165119,['n'],1,right,['1'],6,0.6171932,0.4,0,FastAcc,2,17,Woman,Right,NA,16,TRUE,TRUE,TRUE,TRUE
22,7,1,1.2826084,['n'],1,right,['8'],3,1.5165815,0.2,0,FastAcc,2,17,Woman,Right,NA,16,TRUE,TRUE,TRUE,TRUE
23,7,1,0.5834277,['n'],1,right,['2'],5,1.2510622,0.2,0,FastAcc,2,17,Woman,Right,NA,16,TRUE,TRUE,TRUE,TRUE
24,7,1,1.3161946,['c'],1,left,['3'],4,1.500661,0.2,0,FastAcc,2,17,Woman,Right,NA,16,TRUE,TRUE,TRUE,TRUE
25,7,1,0.5334277,['n'],1,right,['2'],5,1.2665781,0.1,0,FastAcc,2,17,Woman,Right,NA,16,TRUE,TRUE,TRUE,TRUE
26,7,1,0.5672536,['n'],0,left,['2'],5,1.2509565,0.1,0,FastAcc,2,17,Woman,Right,NA,16,TRUE,TRUE,TRUE,TRUE
27,7,1,1.2171829,['c'],1,left,['3'],4,2.0006187,0.2,0,FastAcc,2,17,Woman,Right,NA,16,TRUE,TRUE,TRUE,TRUE
28,7,1,0.6674582,['n'],0,left,['3'],4,1.4007609,0.2,0,FastAcc,2,17,Woman,Right,NA,16,TRUE,TRUE,TRUE,TRUE
29,7,1,1.0168908,['n'],1,right,['3'],4,2.8844704,0.1,0,FastAcc,2,17,Woman,Right,NA,16,TRUE,TRUE,TRUE,TRUE
30,7,1,0.7170166,['n'],0,left,['3'],4,3.3677644,0.2,0,FastAcc,2,17,Woman,Right,NA,16,TRUE,TRUE,TRUE,TRUE
31,7,1,1.0492503,['n'],1,right,['1'],6,0.7343499,0.4,0,FastAcc,2,17,Woman,Right,NA,16,TRUE,TRUE,TRUE,TRUE
32,7,1,0.8835469,['n'],1,right,['3'],4,2.2511233,0.1,0,FastAcc,2,17,Woman,Right,NA,16,TRUE,TRUE,TRUE,TRUE
33,7,1,2.5662824,['n'],1,right,['3'],4,2.5175334,0.1,0,FastAcc,2,17,Woman,Right,NA,16,TRUE,TRUE,TRUE,TRUE
34,7,1,0.883574,['c'],1,left,['0'],1,2.2510057,0.2,0,FastAcc,2,17,Woman,Right,NA,16,TRUE,TRUE,TRUE,TRUE
35,7,1,0.71646,['n'],1,right,['3'],4,1.1677418,0.1,0,FastAcc,2,17,Woman,Right,NA,16,TRUE,TRUE,TRUE,TRUE
36,7,1,0.6159882,['c'],1,left,['1'],6,0.7839843,0.4,0,FastAcc,2,17,Woman,Right,NA,16,TRUE,TRUE,TRUE,TRUE
37,7,1,1.2997977,['n'],0,left,['9'],2,1.2506018,0.2,0,FastAcc,2,17,Woman,Right,NA,16,TRUE,TRUE,TRUE,TRUE
38,7,1,0.5999021,['n'],0,left,['9'],2,1.0011568,0.1,0,FastAcc,2,17,Woman,Right,NA,16,TRUE,TRUE,TRUE,TRUE
39,7,1,0.584099,['n'],1,right,['2'],5,2.8175827,0.1,0,FastAcc,2,17,Woman,Right,NA,16,TRUE,TRUE,TRUE,TRUE
40,7,1,0.6165564,['n'],1,right,['1'],6,0.6839934,0.1,0,FastAcc,2,17,Woman,Right,NA,16,TRUE,TRUE,TRUE,TRUE
41,7,1,2.0670171,['n'],0,left,['8'],3,1.3833089,0.2,0,FastAcc,2,17,Woman,Right,NA,16,TRUE,TRUE,TRUE,TRUE
42,7,1,0.4997849,['n'],1,right,['1'],6,0.7174674,0.4,0,FastAcc,2,17,Woman,Right,NA,16,TRUE,TRUE,TRUE,TRUE
43,7,1,0.5326832,['n'],1,right,['1'],6,0.6172442,0.2,0,FastAcc,2,17,Woman,Right,NA,16,TRUE,TRUE,TRUE,TRUE
44,7,1,0.6837778,['n'],0,left,['1'],6,0.50046,0.1,0,FastAcc,2,17,Woman,Right,NA,16,TRUE,TRUE,TRUE,TRUE
45,7,1,0.6667761,['n'],1,right,['1'],6,0.6176763,0.4,0,FastAcc,2,17,Woman,Right,NA,16,TRUE,TRUE,TRUE,TRUE
46,7,1,0.6829775,['n'],0,left,['1'],6,0.6842355,0.4,0,FastAcc,2,17,Woman,Right,NA,16,TRUE,TRUE,TRUE,TRUE
47,7,1,0.5492044,['n'],1,right,['1'],6,0.6505599,0.4,0,FastAcc,2,17,Woman,Right,NA,16,TRUE,TRUE,TRUE,TRUE
48,7,1,1.383002,['n'],1,right,['3'],4,3.2836128,0.1,0,FastAcc,2,17,Woman,Right,NA,16,TRUE,TRUE,TRUE,TRUE
49,7,1,0.5661577,['n'],1,right,['1'],6,2.9175554,0.4,0,FastAcc,2,17,Woman,Right,NA,16,TRUE,TRUE,TRUE,TRUE
50,7,1,0.6501597,['c'],1,left,['2'],5,2.6499482,0.4,0,FastAcc,2,17,Woman,Right,NA,16,TRUE,TRUE,TRUE,TRUE
51,7,1,0.7663447,['n'],0,left,['2'],5,2.6008421,0.4,0,FastAcc,2,17,Woman,Right,NA,16,TRUE,TRUE,TRUE,TRUE
52,7,1,0.7999938,['n'],1,right,['2'],5,0.9842553,0.2,0,FastAcc,2,17,Woman,Right,NA,16,TRUE,TRUE,TRUE,TRUE
53,7,1,0.9323839,['n'],0,left,['2'],5,1.1672434,0.4,0,FastAcc,2,17,Woman,Right,NA,16,TRUE,TRUE,TRUE,TRUE
54,7,1,0.6160781,['n'],1,right,['2'],5,0.8012797,0.1,0,FastAcc,2,17,Woman,Right,NA,16,TRUE,TRUE,TRUE,TRUE
55,7,1,0.7162756,['n'],0,left,['2'],5,0.7511419,0.2,0,FastAcc,2,17,Woman,Right,NA,16,TRUE,TRUE,TRUE,TRUE
56,7,1,0.7000134,['n'],0,left,['3'],4,0.6677116,0.2,0,FastAcc,2,17,Woman,Right,NA,16,TRUE,TRUE,TRUE,TRUE
57,7,1,0.8838186,['n'],1,right,['1'],6,0.8004066,0.4,0,FastAcc,2,17,Woman,Right,NA,16,TRUE,TRUE,TRUE,TRUE
